index,channel_0,channel_1,channel_2,channel_3,channel_4,channel_5,channel_6,channel_7,accelerometer_x,accelerometer_y,accelerometer_z,empty1,digital_channel_0,digital_channel_1,digital_channel_2,digital_channel_3,empty2,digital_channel_4,analog_channel_0,analog_channel_1,analog_channel_2,timestamp,marker_channel,our_gt_channel
0.0,0.0,0.0,0.0,0.0,0.0,0.0,0.0,0.0,0.0,0.0,0.0,192.0,0.0,0.0,0.0,0.0,0.0,0.0,0.0,0.0,0.0,1769807038.531069,0.0,-44.0
1.0,-47904.9069172033,-18451.767379256176,-187500.02235174447,-67960.52371985004,-71825.94499897302,-48544.61384351419,-38593.17017712238,-64846.009295703094,-0.004,1.018,0.07200000000000001,192.0,255.0,224.0,31.0,208.0,2.0,64.0,0.0,0.0,0.0,1769807039.0099442,0.0,-44.0
2.0,-48130.19014956834,-18636.728064623843,-187500.02235174447,-68033.0551306075,-72050.89295517122,-48386.13997532606,-38316.47793251013,-64909.44354646726,-0.004,1.018,0.07200000000000001,192.0,0.0,0.0,0.0,0.0,0.0,0.0,0.0,0.0,0.0,1769807039.0099766,0.0,-44.0
3.0,-48735.72125860707,-19243.55557484097,-187500.02235174447,-68620.01194000387,-72665.81179688119,-48880.85113535537,-38767.24556294031,-65480.21769287797,-0.004,1.018,0.07200000000000001,192.0,0.0,0.0,0.0,0.0,0.0,0.0,0.0,0.0,0.0,1769807039.009998,0.0,-44.0
4.0,-48602.14723374215,-19129.69578858564,-187500.02235174447,-68611.83120153323,-72524.50406843473,-49073.61257953794,-39052.72204312349,-65467.63366074964,-0.004,1.018,0.07200000000000001,192.0,0.0,0.0,0.0,0.0,0.0,0.0,0.0,0.0,0.0,1769807039.0100195,0.0,-44.0
5.0,-47932.220748927684,-18470.967527743283,-187500.02235174447,-67997.11352552337,-71843.44641488152,-48612.69725712505,-38658.37021569851,-64864.02480173407,-0.004,1.018,0.07200000000000001,192.0,0.0,0.0,0.0,0.0,0.0,0.0,0.0,0.0,0.0,1769807039.0100365,0.0,-44.0
6.0,-47998.06898809302,-18510.083080540073,-187500.02235174447,-67923.17395486521,-71915.3743285387,-48331.557015366205,-38266.27591446351,-64780.11635304885,-0.004,1.018,0.07200000000000001,192.0,0.0,0.0,0.0,0.0,0.0,0.0,0.0,0.0,0.0,1769807039.0100536,0.0,-44.0
7.0,-48678.74666199049,-19169.16896929371,-187500.02235174447,-68552.3308577932,-72601.52817982771,-48796.80857620342,-38664.38283495699,-65384.37341265362,-0.004,1.018,0.07200000000000001,192.0,0.0,0.0,0.0,0.0,0.0,0.0,0.0,0.0,0.0,1769807039.0100749,0.0,-44.0
8.0,-48712.22957518454,-19223.327246108922,-187500.02235174447,-68702.75809797742,-72626.65154059549,-49114.76214108016,-39070.312866009815,-65530.151489991134,-0.004,1.018,0.07200000000000001,192.0,0.0,0.0,31.0,176.0,1.0,96.0,0.0,0.0,0.0,1769807039.0100925,0.0,-44.0
9.0,-48050.93086372982,-18575.97602319432,-187500.02235174447,-68118.21527698223,-71953.2828871349,-48723.6513166012,-38774.44282465492,-64959.31028834704,-0.004,1.018,0.07200000000000001,192.0,0.0,0.0,0.0,0.0,0.0,0.0,0.0,0.0,0.0,1769807039.0101101,0.0,-44.0
10.0,-47905.733931748146,-18425.79465219911,-187500.02235174447,-67849.83788130735,-71811.77399298835,-48298.74465450581,-38258.85513530435,-64693.27982583998,-0.004,1.018,0.07200000000000001,192.0,0.0,0.0,0.0,0.0,0.0,0.0,0.0,0.0,0.0,1769807039.010127,0.0,-44.0
11.0,-48550.49235230593,-19060.181863329635,-187500.02235174447,-68406.9998153448,-72459.63930602543,-48659.45710652556,-38516.146065729394,-65225.60897178757,-0.004,1.018,0.07200000000000001,192.0,0.0,0.0,0.0,0.0,0.0,0.0,0.0,0.0,0.0,1769807039.0101445,0.0,-44.0
12.0,-48768.511267723,-19288.01319456258,-187500.02235174447,-68727.81440351182,-72678.3064220317,-49097.17131819383,-39022.368374153186,-65536.63349588317,-0.004,1.018,0.07200000000000001,192.0,0.0,0.0,0.0,0.0,0.0,0.0,0.0,0.0,0.0,1769807039.0101616,0.0,-44.0
13.0,-48165.170629640896,-18692.428611806467,-187500.02235174447,-68237.99827551821,-72067.09796990133,-48826.089361439874,-38863.670988520505,-65061.614222718985,-0.004,1.018,0.07200000000000001,192.0,0.0,0.0,0.0,0.0,0.0,0.0,0.0,0.0,0.0,1769807039.0101788,0.0,-44.0
14.0,-47855.956596846176,-18385.87443660193,-187500.02235174447,-67832.67174156567,-71762.91307960905,-48315.10613144709,-38300.98817360261,-64657.539386455945,-0.004,1.018,0.07200000000000001,192.0,0.0,0.0,0.0,0.0,0.0,0.0,0.0,0.0,0.0,1769807039.0101848,0.0,-44.0
15.0,-48455.072755226225,-18980.453190857555,-187500.02235174447,-68321.54909629216,-72374.63562186189,-48580.30957940932,-38456.46690803372,-65129.34000841856,-0.004,1.018,0.07200000000000001,192.0,0.0,0.0,0.0,0.0,0.0,0.0,0.0,0.0,0.0,1769807039.0101893,0.0,-44.0
16.0,-48781.85525916282,-19315.9081716428,-187500.02235174447,-68730.51896459091,-72704.72618397787,-49064.582474778,-38981.68819924453,-65530.12913824667,-0.004,1.018,0.07200000000000001,192.0,0.0,0.0,0.0,0.0,0.0,0.0,0.0,0.0,0.0,1769807039.010193,0.0,-44.0
17.0,-48285.40066306599,-18845.06867469176,-187500.02235174447,-68366.56550962514,-72206.81872449144,-48920.748999208095,-38953.05561459728,-65172.47887521731,-0.004,1.018,0.07200000000000001,192.0,0.0,0.0,0.0,0.0,0.0,0.0,0.0,0.0,0.0,1769807039.0101976,0.0,-44.0
18.0,-47825.55822438696,-18382.879302844918,-187500.02235174447,-67856.90103255524,-71754.68763764949,-48385.69294043696,-38391.17746247977,-64673.11855234129,0.012,1.002,0.028,192.0,0.0,96.0,31.0,80.0,0.0,224.0,0.0,0.0,0.0,1769807039.0102017,0.0,-44.0
19.0,-48320.358791394094,-18833.95985769747,-187500.02235174447,-68212.02554846116,-72242.49210864212,-48495.50706094588,-38376.89469777283,-65012.21686747276,0.012,1.002,0.028,192.0,0.0,0.0,0.0,0.0,0.0,0.0,0.0,0.0,0.0,1769807039.010206,0.0,-44.0
20.0,-48780.24593356204,-19295.478677210653,-187500.02235174447,-68720.68419703057,-72705.68730898945,-49018.60493643343,-38908.37447743112,-65508.29148391384,0.012,1.002,0.028,192.0,0.0,0.0,0.0,0.0,0.0,0.0,0.0,0.0,0.0,1769807039.0102103,0.0,-44.0
21.0,-48403.95431565694,-18954.70398124504,-187500.02235174447,-68481.29701391423,-72331.45205157425,-49006.13266302737,-39010.07491470277,-65277.77794334626,0.012,1.002,0.028,192.0,0.0,0.0,0.0,0.0,0.0,0.0,0.0,0.0,0.0,1769807039.010214,0.0,-44.0
22.0,-47809.80024454597,-18378.341898720493,-187500.02235174447,-67870.8708728398,-71740.51663166484,-48444.12040044313,-38459.797317957564,-64685.18849434716,0.012,1.002,0.028,192.0,0.0,0.0,0.0,0.0,0.0,0.0,0.0,0.0,0.0,1769807039.0102184,0.0,-44.0
23.0,-48179.96748447031,-18703.35861484511,-187500.02235174447,-68086.5652068335,-72105.766487809,-48416.001905918354,-38301.63637419181,-64887.9188165568,0.012,1.002,0.028,192.0,0.0,0.0,0.0,0.0,0.0,0.0,0.0,0.0,0.0,1769807039.0102296,0.0,-44.0
24.0,-48725.5512148799,-19240.023999217035,-187500.02235174447,-68642.78836760383,-72654.99355256482,-48919.16202535177,-38789.552603906704,-65429.479232964426,0.012,1.002,0.028,192.0,0.0,0.0,0.0,0.0,0.0,0.0,0.0,0.0,0.0,1769807039.0102339,0.0,-44.0
25.0,-48484.442947440504,-19028.75531062547,-187500.02235174447,-68540.70795067644,-72412.54418045809,-49020.571889945495,-39004.12935067766,-65325.387159036065,0.012,1.002,0.028,192.0,0.0,0.0,0.0,0.0,0.0,0.0,0.0,0.0,0.0,1769807039.010238,0.0,-44.0
26.0,-47844.51250368506,-18388.26607325865,-187500.02235174447,-67913.18272509369,-71754.28530624931,-48507.62170644066,-38530.42883043633,-64711.11651791532,0.012,1.002,0.028,192.0,0.0,0.0,0.0,0.0,0.0,0.0,0.0,0.0,0.0,1769807039.010242,0.0,-44.0
27.0,-48042.21368339225,-18548.23750832528,-187500.02235174447,-67962.289507662,-71957.61912555923,-48326.52787286376,-38227.60739655583,-64754.76947483653,0.012,1.002,0.028,192.0,0.0,0.0,0.0,0.0,0.0,0.0,0.0,0.0,0.0,1769807039.0102463,0.0,-44.0
28.0,-48679.707787002066,-19189.687870703685,-187500.02235174447,-68574.8837679486,-72609.35129038707,-48834.47126561061,-38684.700570666864,-65355.874938473105,0.006,1.012,0.02,192.0,0.0,48.0,31.0,160.0,0.0,160.0,0.0,0.0,0.0,1769807039.0102503,0.0,-44.0
29.0,-48600.224983718996,-19139.195279979143,-187500.02235174447,-68609.81954453225,-72515.18339099687,-49063.084907899494,-39014.09822870472,-65390.85541854566,0.006,1.012,0.02,192.0,0.0,0.0,0.0,0.0,0.0,0.0,0.0,0.0,0.0,1769807039.0102544,0.0,-44.0
30.0,-47926.45399885822,-18467.70417305281,-187500.02235174447,-67984.21656897265,-71820.98291170393,-48598.7721203294,-38621.51218909171,-64780.518684449045,0.006,1.012,0.02,192.0,0.0,0.0,0.0,0.0,0.0,0.0,0.0,0.0,0.0,1769807039.0102587,0.0,-44.0
31.0,-47943.44132464425,-18450.113350166484,-187500.02235174447,-67875.45298045313,-71854.39876966462,-48290.47450905735,-38205.814445711905,-64669.497569739535,0.006,1.012,0.02,192.0,0.0,0.0,0.0,0.0,0.0,0.0,0.0,0.0,0.0,1769807039.0102625,0.0,-44.0
32.0,-48597.833347062275,-19104.147744673224,-187500.02235174447,-68476.2678714118,-72520.43605094386,-48725.37240092426,-38565.856345397995,-65250.374704644055,0.006,1.012,0.02,192.0,0.0,0.0,0.0,0.0,0.0,0.0,0.0,0.0,0.0,1769807039.0102665,0.0,-44.0
33.0,-48657.37839429121,-19189.84433291487,-187500.02235174447,-68647.03519905034,-72573.85672019205,-49061.542637532075,-38985.82327196876,-65424.69595965099,0.006,1.012,0.02,192.0,0.0,0.0,0.0,0.0,0.0,0.0,0.0,0.0,0.0,1769807039.010271,0.0,-44.0
34.0,-48017.9843924027,-18551.94789790486,-187500.02235174447,-68103.06079424152,-71930.75232872395,-48714.04006648542,-38730.208722377865,-64896.43483119427,0.006,1.012,0.02,192.0,0.0,0.0,0.0,0.0,0.0,0.0,0.0,0.0,0.0,1769807039.0102751,0.0,-44.0
35.0,-47859.599931192395,-18380.219445254737,-187500.02235174447,-67823.0604914499,-71772.81490240275,-48292.17324163595,-38223.494675576054,-64626.09048200733,0.006,1.012,0.02,192.0,0.0,0.0,0.0,0.0,0.0,0.0,0.0,0.0,0.0,1769807039.0102792,0.0,-44.0
36.0,-48493.00366556689,-18991.070269473825,-187500.02235174447,-68352.95329725186,-72410.39841299038,-48628.455236966045,-38460.624332502404,-65147.64608712746,0.006,1.012,0.02,192.0,0.0,0.0,0.0,0.0,0.0,0.0,0.0,0.0,0.0,1769807039.0102832,0.0,-44.0
37.0,-48706.753397792985,-19219.393339084785,-187500.02235174447,-68658.00990557788,-72620.61656959254,-49057.98871016368,-38948.51821047285,-65454.26731756536,0.006,1.012,0.02,192.0,0.0,0.0,0.0,0.0,0.0,0.0,0.0,0.0,0.0,1769807039.0102875,0.0,-44.0
38.0,-48125.54098672164,-18670.412143517988,-187500.02235174447,-68189.96437668375,-72033.45859449609,-48816.14283515726,-38806.38346748155,-65004.23729470221,0.006,1.008,0.012,192.0,0.0,48.0,31.0,128.0,0.0,96.0,0.0,0.0,0.0,1769807039.0102928,0.0,-44.0
39.0,-47806.84981427787,-18332.18554642028,-187500.02235174447,-67789.44346778911,-71726.21151521344,-48330.12650372106,-38267.52761215301,-64615.89808653571,0.006,1.008,0.012,192.0,0.0,0.0,0.0,0.0,0.0,0.0,0.0,0.0,0.0,1769807039.010297,0.0,-44.0
40.0,-48360.56957966919,-18858.859701020683,-187500.02235174447,-68221.74855729922,-72280.37831549387,-48537.282471332845,-38360.801441765005,-65037.40728347389,0.006,1.008,0.012,192.0,0.0,0.0,0.0,0.0,0.0,0.0,0.0,0.0,0.0,1769807039.010301,0.0,-44.0
41.0,-48725.97589802455,-19246.729522553625,-187500.02235174447,-68656.31117299928,-72643.81768033716,-49033.155922073835,-38894.02465749081,-65463.07390488075,0.006,1.008,0.012,192.0,0.0,0.0,0.0,0.0,0.0,0.0,0.0,0.0,0.0,1769807039.0103056,0.0,-44.0
42.0,-48230.191854261386,-18782.439086727987,-187500.02235174447,-68295.79988667964,-72148.25715401855,-48892.786966894506,-38870.04123569027,-65108.17290641939,0.006,1.008,0.012,192.0,0.0,0.0,0.0,0.0,0.0,0.0,0.0,0.0,0.0,1769807039.01031,0.0,-44.0
43.0,-47774.81976447341,-18309.409118820324,-187500.02235174447,-67792.66211899067,-71695.03083169828,-48372.460707719416,-38329.15137161629,-64616.63569410273,0.006,1.008,0.012,192.0,0.0,0.0,0.0,0.0,0.0,0.0,0.0,0.0,0.0,1769807039.010314,0.0,-44.0
44.0,-48237.21030202035,-18732.929972759484,-187500.02235174447,-68117.61177988193,-72160.9305931247,-48456.16799070454,-38285.96780132864,-64929.71657868822,0.006,1.008,0.012,192.0,0.0,0.0,0.0,0.0,0.0,0.0,0.0,0.0,0.0,1769807039.0103192,0.0,-44.0
45.0,-48733.62019462827,-19244.337885896908,-187500.02235174447,-68650.03033280735,-72650.05381704019,-48982.79744181603,-38817.22406354237,-65443.82905290474,0.006,1.008,0.012,192.0,0.0,0.0,0.0,0.0,0.0,0.0,0.0,0.0,0.0,1769807039.0103233,0.0,-44.0
46.0,-48364.056451804216,-18919.70114942803,-187500.02235174447,-68428.23397257733,-72282.4570277282,-48981.25517144861,-38932.76023063186,-65228.849974733595,0.006,1.008,0.012,192.0,0.0,0.0,0.0,0.0,0.0,0.0,0.0,0.0,0.0,1769807039.0103273,0.0,-44.0
47.0,-47764.60501725734,-18286.38682203136,-187500.02235174447,-67804.82146797437,-71663.69368597194,-48426.50722581235,-38385.209546710204,-64626.425758174155,0.006,1.008,0.012,192.0,0.0,0.0,0.0,0.0,0.0,0.0,0.0,0.0,0.0,1769807039.0103316,0.0,-44.0
48.0,-48079.250523954695,-18581.04986918567,-187500.02235174447,-67959.1379116938,-71975.36641065674,-48345.34804169513,-38174.633762196754,-64775.400134968775,0.008,1.006,0.008,192.0,0.0,64.0,31.0,112.0,0.0,64.0,0.0,0.0,0.0,1769807039.0103357,0.0,-44.0
49.0,-48681.85355446977,-19200.059080130944,-187500.02235174447,-68570.97221266893,-72591.51459831174,-48880.00176906607,-38692.18840505939,-65364.90504323305,0.008,1.006,0.008,192.0,0.0,0.0,0.0,0.0,0.0,0.0,0.0,0.0,0.0,1769807039.0103397,0.0,-44.0
50.0,-48516.942383878515,-19059.1983865736,-187500.02235174447,-68538.51747971983,-72421.41782300685,-49052.601939749955,-38976.5472980198,-65332.2714963283,0.008,1.006,0.008,192.0,0.0,0.0,0.0,0.0,0.0,0.0,0.0,0.0,0.0,1769807039.010344,0.0,-44.0
51.0,-47848.35700373138,-18392.110573304963,-187500.02235174447,-67898.94466387566,-71744.04820728877,-48542.73629697994,-38514.00029826168,-64714.04459643896,0.008,1.006,0.008,192.0,0.0,0.0,0.0,0.0,0.0,0.0,0.0,0.0,0.0,1769807039.010348,0.0,-44.0
52.0,-48009.93776439879,-18523.315313257615,-187500.02235174447,-67910.56757099243,-71908.6688052021,-48327.7572188088,-38179.037055854445,-64720.83952675337,0.008,1.006,0.008,192.0,0.0,0.0,0.0,0.0,0.0,0.0,0.0,0.0,0.0,1769807039.010352,0.0,-44.0
53.0,-48644.21321680704,-19140.670495113194,-187500.02235174447,-68510.33192996167,-72548.04045534617,-48808.74440774255,-38609.15167440792,-65305.71762391539,0.008,1.006,0.008,192.0,0.0,0.0,0.0,0.0,0.0,0.0,0.0,0.0,0.0,1769807039.0103564,0.0,-44.0
54.0,-48564.6633582906,-19102.20314290561,-187500.02235174447,-68566.36775331113,-72472.31274513158,-49047.68455596978,-38948.0935273282,-65359.47356933041,0.008,1.006,0.008,192.0,0.0,0.0,0.0,0.0,0.0,0.0,0.0,0.0,0.0,1769807039.0103607,0.0,-44.0
55.0,-47904.45988231419,-18445.46418731978,-187500.02235174447,-67978.06983924744,-71807.90714119759,-48622.28615549638,-38600.70271500382,-64783.13383855031,0.008,1.006,0.008,192.0,0.0,0.0,0.0,0.0,0.0,0.0,0.0,0.0,0.0,1769807039.0103648,0.0,-44.0
56.0,-47909.60078353892,-18394.904541361873,-187500.02235174447,-67836.78446254546,-71803.86147545118,-48291.636799769025,-38162.809689379894,-64641.93786882614,0.008,1.006,0.008,192.0,0.0,0.0,0.0,0.0,0.0,0.0,0.0,0.0,0.0,1769807039.0103688,0.0,-44.0
57.0,-48542.669241746575,-19033.53858393891,-187500.02235174447,-68407.17862930044,-72448.50813728668,-48698.03621745542,-38490.12863518341,-65198.02691912973,0.008,1.006,0.008,192.0,0.0,0.0,0.0,0.0,0.0,0.0,0.0,0.0,0.0,1769807039.0103729,0.0,-44.0
58.0,-48617.18995776057,-19139.687018357163,-187500.02235174447,-68608.1431636981,-72532.03660631616,-49045.65054722435,-38924.691250883494,-65392.80002031327,0.008,1.006,0.008,192.0,0.0,0.0,0.0,0.0,0.0,0.0,0.0,0.0,0.0,1769807039.0103767,0.0,-44.0
59.0,-47995.40913050284,-18538.58155472059,-187500.02235174447,-68078.47387534069,-71897.15765680763,-48714.576508352344,-38691.76372191474,-64876.20650246221,0.004,1.006,0.014,192.0,0.0,32.0,31.0,112.0,0.0,112.0,0.0,0.0,0.0,1769807039.0103807,0.0,-44.0
60.0,-47821.69137259619,-18338.309924401037,-187500.02235174447,-67791.58923525682,-71724.55748612374,-48286.093567144104,-38185.07202685738,-64593.233417658026,0.004,1.006,0.014,192.0,0.0,0.0,0.0,0.0,0.0,0.0,0.0,0.0,0.0,1769807039.010385,0.0,-44.0
61.0,-48434.97853696091,-18938.49896651494,-187500.02235174447,-68322.82314572611,-72357.55888909804,-48616.25118449345,-38408.52241617709,-65109.581066320075,0.004,1.006,0.014,192.0,0.0,0.0,0.0,0.0,0.0,0.0,0.0,0.0,0.0,1769807039.010389,0.0,-44.0
62.0,-48665.26856008394,-19189.37494628131,-187500.02235174447,-68645.0011903049,-72589.16766514393,-49050.143247859865,-38906.47457915242,-65431.53559345432,0.004,1.006,0.014,192.0,0.0,0.0,0.0,0.0,0.0,0.0,0.0,0.0,0.0,1769807039.0103931,0.0,-44.0
63.0,-48082.33506468953,-18641.287820492726,-187500.02235174447,-68181.80598995757,-72007.88819883921,-48805.99514317455,-38773.32523743215,-64978.979823467715,0.004,1.006,0.014,192.0,0.0,0.0,0.0,0.0,0.0,0.0,0.0,0.0,0.0,1769807039.0103977,0.0,-44.0
64.0,-47746.65656645973,-18287.593816231947,-187500.02235174447,-67758.97804009652,-71671.42738955349,-48299.48226207284,-38221.840646486366,-64563.95263242158,0.004,1.006,0.014,192.0,0.0,0.0,0.0,0.0,0.0,0.0,0.0,0.0,0.0,1769807039.0104015,0.0,-44.0
65.0,-48303.997314452805,-18784.316633262235,-187500.02235174447,-68184.39879231439,-72222.21907642116,-48496.445834213,-38300.42937999122,-64975.00121295467,0.004,1.006,0.014,192.0,0.0,0.0,0.0,0.0,0.0,0.0,0.0,0.0,0.0,1769807039.0104125,0.0,-44.0
66.0,-48696.91863023265,-19200.081431875402,-187500.02235174447,-68646.38699846114,-72620.10247947008,-49005.4174072048,-38846.21427610091,-65426.34998874069,0.004,1.006,0.014,192.0,0.0,0.0,0.0,0.0,0.0,0.0,0.0,0.0,0.0,1769807039.0104165,0.0,-44.0
67.0,-48212.37751393051,-18766.32347897571,-187500.02235174447,-68301.25371232674,-72138.75766262504,-48889.94829534868,-38845.834296445166,-65088.10103989852,0.004,1.006,0.014,192.0,0.0,0.0,0.0,0.0,0.0,0.0,0.0,0.0,0.0,1769807039.0104206,0.0,-44.0
68.0,-47718.58277542386,-18256.837815861443,-187500.02235174447,-67765.88472913322,-71650.43910150994,-48354.199332499426,-38288.09121705189,-64566.388972567205,0.004,1.006,0.014,192.0,0.0,0.0,0.0,0.0,0.0,0.0,0.0,0.0,0.0,1769807039.0104249,0.0,-44.0
69.0,-48159.38152782697,-18664.64539344852,-187500.02235174447,-68067.40976183531,-72096.08818245986,-48414.034952406284,-38227.272120389,-64863.64482207833,0.012,1.002,0.018000000000000002,192.0,0.0,96.0,31.0,80.0,0.0,144.0,0.0,0.0,0.0,1769807039.010429,0.0,-44.0
70.0,-48656.976062891015,-19156.137902276267,-187500.02235174447,-68591.22289314543,-72588.07242966563,-48922.984173653625,-38749.230056909335,-65374.382182882095,0.012,1.002,0.018000000000000002,192.0,0.0,0.0,0.0,0.0,0.0,0.0,0.0,0.0,0.0,1769807039.0104332,0.0,-44.0
71.0,-48305.472529586856,-18848.466139848966,-187500.02235174447,-68375.52855915172,-72232.56793410396,-48931.81311271348,-38873.17047991401,-65165.438075713886,0.012,1.002,0.018000000000000002,192.0,0.0,0.0,0.0,0.0,0.0,0.0,0.0,0.0,0.0,1769807039.0104375,0.0,-44.0
72.0,-47703.51769966098,-18264.95149909872,-187500.02235174447,-67772.72436293654,-71628.154412288,-48396.60059173115,-38353.62653179485,-64578.54832155089,0.012,1.002,0.018000000000000002,192.0,0.0,0.0,0.0,0.0,0.0,0.0,0.0,0.0,0.0,1769807039.0104415,0.0,-44.0
73.0,-47982.86980186341,-18512.09473754105,-187500.02235174447,-67915.50730651704,-71920.6269884857,-48301.04688418471,-38130.667880853165,-64718.6267040523,0.012,1.002,0.018000000000000002,192.0,0.0,0.0,0.0,0.0,0.0,0.0,0.0,0.0,0.0,1769807039.0104456,0.0,-44.0
74.0,-48588.93735276906,-19114.965988989592,-187500.02235174447,-68519.16086902152,-72530.9190190934,-48824.480035839086,-38631.771639796694,-65308.198667549936,0.012,1.002,0.018000000000000002,192.0,0.0,0.0,0.0,0.0,0.0,0.0,0.0,0.0,0.0,1769807039.01045,0.0,-44.0
75.0,-48426.86485372363,-18979.67087980162,-187500.02235174447,-68480.73822030285,-72357.44713037576,-48988.51948839659,-38913.04599202228,-65274.6039956336,0.012,1.002,0.018000000000000002,192.0,0.0,0.0,0.0,0.0,0.0,0.0,0.0,0.0,0.0,1769807039.010454,0.0,-44.0
76.0,-47768.6730347482,-18334.599534821456,-187500.02235174447,-67862.19839599114,-71695.70138403194,-48500.6479621706,-38480.29386762308,-64676.359555287316,0.012,1.002,0.018000000000000002,192.0,0.0,0.0,0.0,0.0,0.0,0.0,0.0,0.0,0.0,1769807039.010458,0.0,-44.0
77.0,-47912.57356555147,-18447.140568153925,-187500.02235174447,-67874.17893101918,-71853.92938303106,-48289.75925323478,-38151.47735494105,-64686.619005992296,0.012,1.002,0.018000000000000002,192.0,0.0,0.0,0.0,0.0,0.0,0.0,0.0,0.0,0.0,1769807039.010462,0.0,-44.0
78.0,-48552.325195351266,-19069.1002093673,-187500.02235174447,-68468.7576852748,-72492.63048084146,-48755.54725593892,-38562.86121164098,-65264.143379228524,0.012,1.002,0.018000000000000002,192.0,0.0,0.0,0.0,0.0,0.0,0.0,0.0,0.0,0.0,1769807039.0104659,0.0,-44.0
79.0,-48508.11344481867,-19053.498691737495,-187500.02235174447,-68544.64185770057,-72438.15927960387,-49010.871232851896,-38914.85648332316,-65335.13251961858,0.012,1.004,0.012,192.0,0.0,96.0,31.0,96.0,0.0,96.0,0.0,0.0,0.0,1769807039.01047,0.0,-44.0
80.0,-47852.44737296669,-18416.138698594415,-187500.02235174447,-67963.92118500725,-71775.00537335937,-48594.99467551645,-38579.06622637108,-64762.72669586262,0.012,1.004,0.012,192.0,0.0,0.0,0.0,0.0,0.0,0.0,0.0,0.0,0.0,1769807039.010474,0.0,-44.0
81.0,-47815.209366704155,-18331.514994086625,-187500.02235174447,-67789.33170906684,-71740.89661132057,-48242.57472068963,-38125.750497073,-64594.060432202874,0.012,1.004,0.012,192.0,0.0,0.0,0.0,0.0,0.0,0.0,0.0,0.0,0.0,1769807039.010478,0.0,-44.0
82.0,-48463.07467974123,-18959.308440602832,-187500.02235174447,-68362.49749213428,-72392.62877614841,-48641.665117939134,-38444.195800327754,-65151.40118019596,0.012,1.004,0.012,192.0,0.0,0.0,0.0,0.0,0.0,0.0,0.0,0.0,0.0,1769807039.010482,0.0,-44.0
83.0,-48562.33877686725,-19084.72407874156,-187500.02235174447,-68589.99354720039,-72504.27573970267,-49013.95577358673,-38895.29870692476,-65373.823389270714,0.012,1.004,0.012,192.0,0.0,0.0,0.0,0.0,0.0,0.0,0.0,0.0,0.0,1769807039.0104864,0.0,-44.0
84.0,-47916.61923129788,-18493.74395534324,-187500.02235174447,-68056.0103721631,-71864.81468258079,-48691.800080752386,-38667.8250036031,-64856.20169117471,0.012,1.004,0.012,192.0,0.0,0.0,0.0,0.0,0.0,0.0,0.0,0.0,0.0,1769807039.0104904,0.0,-44.0
85.0,-47700.76843509298,-18269.9135863678,-187500.02235174447,-67725.49512690248,-71648.09216834213,-48240.92069159993,-38134.53473264393,-64537.979905364504,0.012,1.004,0.012,192.0,0.0,0.0,0.0,0.0,0.0,0.0,0.0,0.0,0.0,1769807039.0104945,0.0,-44.0
86.0,-48330.640593843535,-18847.5497183263,-187500.02235174447,-68238.22179296277,-72274.29864100202,-48548.57010228278,-38333.73347922963,-65038.56957418557,0.012,1.004,0.012,192.0,0.0,0.0,0.0,0.0,0.0,0.0,0.0,0.0,0.0,1769807039.0104983,0.0,-44.0
87.0,-48608.40572218964,-19143.531518403473,-187500.02235174447,-68601.21412291695,-72548.01810360172,-49012.88288985287,-38851.93632268147,-65393.58233136921,0.012,1.004,0.012,192.0,0.0,0.0,0.0,0.0,0.0,0.0,0.0,0.0,0.0,1769807039.0105035,0.0,-44.0
88.0,-48051.13202942992,-18633.30824772218,-187500.02235174447,-68172.57471949753,-71994.05246902138,-48803.49174779555,-38759.57891459214,-64976.252910644165,0.012,1.004,0.012,192.0,0.0,0.0,0.0,0.0,0.0,0.0,0.0,0.0,0.0,1769807039.0105076,0.0,-44.0
89.0,-47676.31562665888,-18227.42292015826,-187500.02235174447,-67709.93831276159,-71611.14473475752,-48278.35986356257,-38190.52585250448,-64526.44640522557,0.01,1.008,0.012,192.0,0.0,80.0,31.0,128.0,0.0,96.0,0.0,0.0,0.0,1769807039.0105119,0.0,-44.0
90.0,-48216.624345377015,-18717.59667606314,-187500.02235174447,-68123.33382646249,-72152.21341278714,-48458.44786863898,-38249.91443752223,-64925.581505963986,0.01,1.008,0.012,192.0,0.0,0.0,0.0,0.0,0.0,0.0,0.0,0.0,0.0,1769807039.0105157,0.0,-44.0
91.0,-48617.704047883046,-19120.106890214312,-187500.02235174447,-68584.4950180644,-72550.18622281388,-48959.126944437856,-38779.24844971281,-65372.303470647756,0.01,1.008,0.012,192.0,0.0,0.0,0.0,0.0,0.0,0.0,0.0,0.0,0.0,1769807039.01052,0.0,-44.0
92.0,-48169.55157155413,-18704.967940445895,-187500.02235174447,-68264.93212758686,-72093.69654580313,-48858.611149622346,-38800.41555171199,-65059.222586062264,0.01,1.008,0.012,192.0,0.0,0.0,0.0,0.0,0.0,0.0,0.0,0.0,0.0,1769807039.010524,0.0,-44.0
93.0,-47670.079489955846,-18204.154754180283,-187500.02235174447,-67720.39892916667,-71584.74732455579,-48318.52594834876,-38250.47323113361,-64529.84387038278,0.01,1.008,0.012,192.0,0.0,0.0,0.0,0.0,0.0,0.0,0.0,0.0,0.0,1769807039.010528,0.0,-44.0
94.0,-48081.686864100324,-18596.070241459638,-187500.02235174447,-67993.80546734399,-72000.33330921333,-48362.40242271453,-38153.28784624193,-64795.71787067865,0.01,1.008,0.012,192.0,0.0,0.0,0.0,0.0,0.0,0.0,0.0,0.0,0.0,1769807039.0105324,0.0,-44.0
95.0,-48621.99558281846,-19141.855137569328,-187500.02235174447,-68566.85949168915,-72547.41460650142,-48909.1931473247,-38698.268079551235,-65354.62324078361,0.01,1.008,0.012,192.0,0.0,0.0,0.0,0.0,0.0,0.0,0.0,0.0,0.0,1769807039.0105364,0.0,-44.0
96.0,-48322.3033931617,-18868.135674969635,-187500.02235174447,-68400.31664375265,-72238.35703591788,-48964.580770084955,-38868.72248276741,-65195.72468945083,0.01,1.008,0.012,192.0,0.0,0.0,0.0,0.0,0.0,0.0,0.0,0.0,0.0,1769807039.0105405,0.0,-44.0
97.0,-47709.32915321936,-18257.95540308421,-187500.02235174447,-67783.76612469746,-71615.12334527056,-48428.87651072461,-38357.11340392988,-64599.380147383235,0.01,1.008,0.012,192.0,0.0,0.0,0.0,0.0,0.0,0.0,0.0,0.0,0.0,1769807039.0105443,0.0,-44.0
98.0,-47983.16037454133,-18496.828496078077,-187500.02235174447,-67916.1331553618,-71899.01285159742,-48320.73877104983,-38125.25875869498,-64728.349712890355,0.01,1.008,0.012,192.0,0.0,0.0,0.0,0.0,0.0,0.0,0.0,0.0,0.0,1769807039.0105488,0.0,-44.0
99.0,-48592.2677626929,-19095.45291608011,-187500.02235174447,-68515.33872071966,-72515.33985320805,-48834.068934210416,-38615.343107622044,-65315.35122577563,0.008,1.008,0.018000000000000002,192.0,0.0,64.0,31.0,128.0,0.0,144.0,0.0,0.0,0.0,1769807039.010553,0.0,-44.0
100.0,-48425.81432173423,-18965.879853472692,-187500.02235174447,-68472.19985392093,-72342.60557205744,-48995.493232666646,-38890.716599311425,-65278.895530569025,0.008,1.008,0.018000000000000002,192.0,0.0,0.0,0.0,0.0,0.0,0.0,0.0,0.0,0.0,1769807039.0105572,0.0,-44.0
101.0,-47784.54277331147,-18338.064055212028,-187500.02235174447,-67872.81547460741,-71699.38942186706,-48533.9073579201,-38487.267611893134,-64696.1184973858,0.008,1.008,0.018000000000000002,192.0,0.0,0.0,0.0,0.0,0.0,0.0,0.0,0.0,0.0,1769807039.0105612,0.0,-44.0
102.0,-47884.85740242689,-18396.15623905137,-187500.02235174447,-67822.16642167169,-71793.95965265748,-48281.80203220869,-38112.04887772189,-64646.58703167285,0.008,1.008,0.018000000000000002,192.0,0.0,0.0,0.0,0.0,0.0,0.0,0.0,0.0,0.0,1769807039.0105653,0.0,-44.0
103.0,-48527.090075861226,-19030.67756064863,-187500.02235174447,-68424.36712078657,-72450.63155300994,-48742.337374965835,-38515.654327351374,-65226.97242819935,0.008,1.008,0.018000000000000002,192.0,0.0,0.0,0.0,0.0,0.0,0.0,0.0,0.0,0.0,1769807039.0105696,0.0,-44.0
104.0,-48485.15820326307,-19032.689217649608,-187500.02235174447,-68507.6720723715,-72410.17489554583,-49005.73033162717,-38882.11117769613,-65314.25599029732,0.008,1.008,0.018000000000000002,192.0,0.0,0.0,0.0,0.0,0.0,0.0,0.0,0.0,0.0,1769807039.0105739,0.0,-44.0
105.0,-47810.18022420171,-18372.10576201746,-187500.02235174447,-67914.4791262721,-71732.76057633884,-48577.53796309685,-38547.594970178005,-64733.892945515276,0.008,1.008,0.018000000000000002,192.0,0.0,0.0,0.0,0.0,0.0,0.0,0.0,0.0,0.0,1769807039.010578,0.0,-44.0
106.0,-47764.18033411269,-18300.870752438397,-187500.02235174447,-67736.11220551876,-71686.44776182744,-48236.27152875323,-38093.22870889053,-64563.77381846593,0.008,1.008,0.018000000000000002,192.0,0.0,0.0,0.0,0.0,0.0,0.0,0.0,0.0,0.0,1769807039.010582,0.0,-44.0
107.0,-48435.514978827836,-18951.172405621102,-187500.02235174447,-68321.14676489196,-72353.46851986271,-48646.94012963059,-38406.62251789839,-65133.18450846488,0.008,1.008,0.018000000000000002,192.0,0.0,0.0,0.0,0.0,0.0,0.0,0.0,0.0,0.0,1769807039.0105865,0.0,-44.0
108.0,-48576.152154940624,-19119.793965791938,-187500.02235174447,-68575.24139585989,-72498.0172512552,-49038.810913421024,-38877.84199450517,-65383.6358050866,0.008,1.008,0.018000000000000002,192.0,0.0,0.0,0.0,0.0,0.0,0.0,0.0,0.0,0.0,1769807039.0105915,0.0,-44.0
109.0,-47958.037013773566,-18511.401833462936,-187500.02235174447,-68054.3116395845,-71872.8613105847,-48724.098351490306,-38672.47416644981,-64880.14040948635,0.006,1.006,0.018000000000000002,192.0,0.0,48.0,31.0,112.0,0.0,144.0,0.0,0.0,0.0,1769807039.0105958,0.0,-44.0
110.0,-47726.87527261678,-18241.638629631834,-187500.02235174447,-67714.40866165265,-71647.66748519748,-48264.05474711117,-38140.88262806924,-64551.48035901551,0.006,1.006,0.018000000000000002,192.0,0.0,0.0,0.0,0.0,0.0,0.0,0.0,0.0,0.0,1769807039.0106,0.0,-44.0
111.0,-48317.47541635936,-18827.79077622781,-187500.02235174447,-68212.91961823936,-72255.8584518264,-48554.38155584116,-38323.474028524644,-65038.81544337457,0.006,1.006,0.018000000000000002,192.0,0.0,0.0,0.0,0.0,0.0,0.0,0.0,0.0,0.0,1769807039.010607,0.0,-44.0
112.0,-48591.70896908152,-19123.191430949144,-187500.02235174447,-68568.80409345675,-72525.6216556575,-48995.269715222086,-38820.30860427721,-65383.14406670858,0.006,1.006,0.018000000000000002,192.0,0.0,0.0,0.0,0.0,0.0,0.0,0.0,0.0,0.0,1769807039.0106113,0.0,-44.0
113.0,-48056.56350333256,-18623.92051505095,-187500.02235174447,-68159.85657690246,-71988.57629162983,-48795.98156165857,-38740.80344924968,-64975.492951332686,0.006,1.006,0.018000000000000002,192.0,0.0,0.0,0.0,0.0,0.0,0.0,0.0,0.0,0.0,1769807039.010615,0.0,-44.0
114.0,-47662.50224858549,-18233.413187672282,-187500.02235174447,-67699.16477193413,-71608.08254576715,-48287.27820960024,-38190.88348041576,-64529.48624247149,0.006,1.006,0.018000000000000002,192.0,0.0,0.0,0.0,0.0,0.0,0.0,0.0,0.0,0.0,1769807039.0106192,0.0,-44.0
115.0,-48172.30083612214,-18693.859123451606,-187500.02235174447,-68080.86551199741,-72123.31260720642,-48436.38669686159,-38224.18757965417,-64900.212276007216,0.006,1.006,0.018000000000000002,192.0,0.0,0.0,0.0,0.0,0.0,0.0,0.0,0.0,0.0,1769807039.0106235,0.0,-44.0
116.0,-48595.97815227249,-19124.756053061017,-187500.02235174447,-68562.16562535353,-72545.15708031143,-48943.7042407637,-38757.18727793542,-65364.79328451077,0.006,1.006,0.018000000000000002,192.0,0.0,0.0,0.0,0.0,0.0,0.0,0.0,0.0,0.0,1769807039.0106275,0.0,-44.0
117.0,-48185.801289773146,-18755.929917803995,-187500.02235174447,-68267.2120055213,-72111.84616230085,-48887.15432729177,-38802.87424360207,-65076.701650226314,0.006,1.006,0.018000000000000002,192.0,0.0,0.0,0.0,0.0,0.0,0.0,0.0,0.0,0.0,1769807039.0106316,0.0,-44.0
118.0,-47667.64314981022,-18214.525963607546,-187500.02235174447,-67706.20557143755,-71580.47814136483,-48341.50354164881,-38254.250675946554,-64525.77585289191,0.006,1.006,0.018000000000000002,192.0,0.0,0.0,0.0,0.0,0.0,0.0,0.0,0.0,0.0,1769807039.0106356,0.0,-44.0
119.0,-48056.29528239909,-18568.309374846147,-187500.02235174447,-67952.47709184613,-71971.3878001437,-48348.20906498541,-38129.684404097134,-64764.58189065241,0.01,1.008,0.018000000000000002,192.0,0.0,80.0,31.0,128.0,0.0,144.0,0.0,0.0,0.0,1769807039.01064,0.0,-44.0
120.0,-48601.275515708396,-19128.08646298486,-187500.02235174447,-68522.11129928962,-72521.15130676643,-48885.857926113364,-38655.330378452585,-65317.36288277661,0.01,1.008,0.018000000000000002,192.0,0.0,0.0,0.0,0.0,0.0,0.0,0.0,0.0,0.0,1769807039.010644,0.0,-44.0
121.0,-48306.2995441317,-18854.814035274274,-187500.02235174447,-68369.27007070424,-72228.72343405765,-48953.114325179384,-38838.52527600828,-65172.09889556157,0.01,1.008,0.018000000000000002,192.0,0.0,0.0,0.0,0.0,0.0,0.0,0.0,0.0,0.0,1769807039.4906828,0.0,-44.0
122.0,-47660.24472239551,-18209.988559483118,-187500.02235174447,-67739.24144974249,-71584.81437978917,-48406.994152902866,-38327.6985082267,-64558.83408294131,0.01,1.008,0.018000000000000002,192.0,0.0,0.0,0.0,0.0,0.0,0.0,0.0,0.0,0.0,1769807039.4907196,0.0,-44.0
123.0,-47916.86510048689,-18444.681876263843,-187500.02235174447,-67842.28299168147,-71840.98772299144,-48279.477450785336,-38075.48142379301,-64661.07096207988,0.01,1.008,0.018000000000000002,192.0,0.0,0.0,0.0,0.0,0.0,0.0,0.0,0.0,0.0,1769807039.490739,0.0,-44.0
124.0,-48554.80623898581,-19079.58317751684,-187500.02235174447,-68453.89377521203,-72471.7092480313,-48799.51313728251,-38560.469574984265,-65256.09675122461,0.01,1.008,0.018000000000000002,192.0,0.0,0.0,0.0,0.0,0.0,0.0,0.0,0.0,0.0,1769807039.4907532,0.0,-44.0
125.0,-48438.17483641802,-18985.03529847089,-187500.02235174447,-68463.97441196138,-72351.4792146062,-49008.68076189527,-38883.69815155246,-65271.54180664323,0.01,1.008,0.018000000000000002,192.0,0.0,0.0,0.0,0.0,0.0,0.0,0.0,0.0,0.0,1769807039.490766,0.0,-44.0
126.0,-47758.16771485421,-18325.412967850323,-187500.02235174447,-67839.62313409128,-71669.50513953032,-48532.476846274956,-38468.603905272954,-64666.10010458233,0.01,1.008,0.018000000000000002,192.0,0.0,0.0,0.0,0.0,0.0,0.0,0.0,0.0,0.0,1769807039.4907784,0.0,-44.0
127.0,-47810.582555601904,-18348.34585766147,-187500.02235174447,-67751.40079872619,-71728.89372454808,-48239.199607276874,-38055.6330747167,-64582.817504741855,0.01,1.008,0.018000000000000002,192.0,0.0,0.0,0.0,0.0,0.0,0.0,0.0,0.0,0.0,1769807039.4907837,0.0,-44.0
128.0,-48473.892924057596,-18981.70488854705,-187500.02235174447,-68356.41781764243,-72395.26628199415,-48699.80200526739,-38449.06848061901,-65174.937567107394,0.01,1.008,0.018000000000000002,192.0,0.0,0.0,0.0,0.0,0.0,0.0,0.0,0.0,0.0,1769807039.490788,0.0,-44.0
129.0,-48472.21654322345,-19024.575534412328,-187500.02235174447,-68487.10846747262,-72401.63652916391,-49002.31051472551,-38847.13069762358,-65304.197705292434,0.016,1.008,0.02,192.0,0.0,128.0,31.0,128.0,0.0,160.0,0.0,0.0,0.0,1769807039.490792,0.0,-44.0
130.0,-47787.98494195759,-18380.711183632753,-187500.02235174447,-67907.32656804641,-71726.36797742463,-48599.24150696296,-38533.71453687126,-64732.44008212568,0.016,1.008,0.02,192.0,0.0,0.0,0.0,0.0,0.0,0.0,0.0,0.0,0.0,1769807039.4907959,0.0,-44.0
131.0,-47725.04242957145,-18261.5093304526,-187500.02235174447,-67688.25712063994,-71637.2068687924,-48217.16078724394,-38052.794403170876,-64520.70200690055,0.016,1.008,0.02,192.0,0.0,0.0,0.0,0.0,0.0,0.0,0.0,0.0,0.0,1769807039.4907997,0.0,-44.0
132.0,-48396.6229434756,-18889.570997902276,-187500.02235174447,-68260.19355776234,-72298.17030408028,-48607.489300666966,-38345.82577297995,-65081.35081307302,0.016,1.008,0.02,192.0,0.0,0.0,0.0,0.0,0.0,0.0,0.0,0.0,0.0,1769807039.4908035,0.0,-44.0
133.0,-48544.32327083627,-19085.081706652847,-187500.02235174447,-68526.91692434752,-72456.7559309907,-49015.49804395414,-38824.01899385679,-65346.420150568505,0.016,1.008,0.02,192.0,0.0,0.0,0.0,0.0,0.0,0.0,0.0,0.0,0.0,1769807039.4908073,0.0,-44.0
134.0,-47910.628963783856,-18490.167676230394,-187500.02235174447,-68012.84915361991,-71829.29776064132,-48709.81558678336,-38625.468447860294,-64843.93058346875,0.016,1.008,0.02,192.0,0.0,0.0,0.0,0.0,0.0,0.0,0.0,0.0,0.0,1769807039.490811,0.0,-44.0
135.0,-47675.734481303036,-18202.50072509059,-187500.02235174447,-67663.04435289436,-71586.93779551242,-48242.95470034536,-38096.44736009209,-64502.39592819166,0.016,1.008,0.02,192.0,0.0,0.0,0.0,0.0,0.0,0.0,0.0,0.0,0.0,1769807039.4908152,0.0,-44.0
136.0,-48272.146078604,-18772.067877300728,-187500.02235174447,-68151.00528609817,-72192.60301501787,-48519.13285483514,-38263.32548419541,-64980.54444557959,0.016,1.008,0.02,192.0,0.0,0.0,0.0,0.0,0.0,0.0,0.0,0.0,0.0,1769807039.4908192,0.0,-44.0
137.0,-48590.74784406994,-19119.995131492036,-187500.02235174447,-68556.86826191763,-72521.39717595544,-49002.93636357026,-38803.745961635825,-65379.25486317335,0.016,1.008,0.02,192.0,0.0,0.0,0.0,0.0,0.0,0.0,0.0,0.0,0.0,1769807039.4908233,0.0,-44.0
138.0,-48086.738358347226,-18648.440378718424,-187500.02235174447,-68168.66316421785,-72004.78130635993,-48835.23122492209,-38754.43801336742,-65003.92437027984,0.016,1.008,0.02,192.0,0.0,0.0,0.0,0.0,0.0,0.0,0.0,0.0,0.0,1769807039.4908268,0.0,-44.0
139.0,-47638.16119887367,-18187.54740804999,-187500.02235174447,-67656.18236734657,-71556.3382573531,-48293.06731141416,-38172.08566332885,-64509.57083816181,0.018000000000000002,1.004,0.02,192.0,0.0,144.0,31.0,96.0,0.0,160.0,0.0,0.0,0.0,1769807039.4908311,0.0,-44.0
140.0,-48106.22907951225,-18636.16927101246,-187500.02235174447,-68004.02021456006,-72040.34293178833,-48402.38969354507,-38153.06432879738,-64843.17062415727,0.018000000000000002,1.004,0.02,192.0,0.0,0.0,0.0,0.0,0.0,0.0,0.0,0.0,0.0,1769807039.490835,0.0,-44.0
141.0,-48570.38540487116,-19119.950428003125,-187500.02235174447,-68516.41160445352,-72508.05318451562,-48938.853912216895,-38710.002745390266,-65345.92841219049,0.018000000000000002,1.004,0.02,192.0,0.0,0.0,0.0,0.0,0.0,0.0,0.0,0.0,0.0,1769807039.4908392,0.0,-44.0
142.0,-48162.19784762834,-18743.47999614239,-187500.02235174447,-68246.02255177767,-72100.71499356211,-48895.715045418154,-38782.221231725365,-65080.99318516174,0.018000000000000002,1.004,0.02,192.0,0.0,0.0,0.0,0.0,0.0,0.0,0.0,0.0,0.0,1769807039.4908428,0.0,-44.0
143.0,-47626.13596035671,-18195.147001164794,-187500.02235174447,-67683.85382698225,-71560.0933504216,-48363.072975048184,-38248.17100145471,-64531.02851283891,0.018000000000000002,1.004,0.02,192.0,0.0,0.0,0.0,0.0,0.0,0.0,0.0,0.0,0.0,1769807039.4908469,0.0,-44.0
144.0,-48028.82498846352,-18553.37840955,-187500.02235174447,-67931.8911352028,-71954.15460516866,-48360.01078605781,-38119.96139525907,-64765.76653310854,0.018000000000000002,1.004,0.02,192.0,0.0,0.0,0.0,0.0,0.0,0.0,0.0,0.0,0.0,1769807039.4908507,0.0,-44.0
145.0,-48567.47967809197,-19099.766802759983,-187500.02235174447,-68496.5185518883,-72500.65475710091,-48889.233039526116,-38636.91254102141,-65315.50768798682,0.018000000000000002,1.004,0.02,192.0,0.0,0.0,0.0,0.0,0.0,0.0,0.0,0.0,0.0,1769807039.4908545,0.0,-44.0
146.0,-48297.023570182755,-18854.05407596279,-187500.02235174447,-68358.87650953252,-72233.28318992653,-48967.374738141865,-38834.56901723969,-65186.404012012965,0.018000000000000002,1.004,0.02,192.0,0.0,0.0,0.0,0.0,0.0,0.0,0.0,0.0,0.0,1769807039.4908583,0.0,-44.0
147.0,-47641.536312286415,-18199.37148086685,-187500.02235174447,-67720.37657742221,-71577.90769075247,-48424.33910660018,-38336.058060652984,-64569.518216790944,0.018000000000000002,1.004,0.02,192.0,0.0,0.0,0.0,0.0,0.0,0.0,0.0,0.0,0.0,1769807039.490862,0.0,-44.0
148.0,-47885.93028616074,-18417.5468584951,-187500.02235174447,-67817.13727916924,-71825.67677803956,-48281.578514764136,-38071.927496424614,-64658.76873240099,0.018000000000000002,1.004,0.02,192.0,0.0,0.0,0.0,0.0,0.0,0.0,0.0,0.0,0.0,1769807039.4908657,0.0,-44.0
149.0,-48533.03563988634,-19045.273249777943,-187500.02235174447,-68436.79469070371,-72464.89196597242,-48807.000971675036,-38549.33840624552,-65261.26000419379,0.018000000000000002,1.004,0.02,192.0,0.0,0.0,0.0,0.0,0.0,0.0,0.0,0.0,0.0,1769807039.4908695,0.0,-44.0
150.0,-48403.64139123457,-18950.390094565166,-187500.02235174447,-68442.13675762854,-72337.21880164371,-49002.60108740343,-38855.892581450054,-65265.21626296238,0.016,1.004,0.018000000000000002,192.0,0.0,128.0,31.0,96.0,0.0,144.0,0.0,0.0,0.0,1769807039.4908736,0.0,-44.0
151.0,-47706.02109503998,-18275.65798469281,-187500.02235174447,-67802.98862492903,-71637.31862751469,-48517.009439111884,-38444.12874509439,-64645.022409560974,0.016,1.004,0.018000000000000002,192.0,0.0,0.0,0.0,0.0,0.0,0.0,0.0,0.0,0.0,1769807039.4908776,0.0,-44.0
152.0,-47773.43395631718,-18292.57825524548,-187500.02235174447,-67727.70794960356,-71710.69940456146,-48232.96347057384,-38046.424156001114,-64569.60762376877,0.016,1.004,0.018000000000000002,192.0,0.0,0.0,0.0,0.0,0.0,0.0,0.0,0.0,0.0,1769807039.4908817,0.0,-44.0
153.0,-48439.068906196226,-18967.55623430684,-187500.02235174447,-68339.78811976769,-72384.1351132554,-48699.17615642264,-38440.39600377035,-65167.33797399259,0.016,1.004,0.018000000000000002,192.0,0.0,0.0,0.0,0.0,0.0,0.0,0.0,0.0,0.0,1769807039.4908855,0.0,-44.0
154.0,-48479.27969447133,-19029.738787381506,-187500.02235174447,-68502.50881940233,-72425.08350909752,-49025.60103244794,-38855.26673260531,-65325.07423461369,0.016,1.004,0.018000000000000002,192.0,0.0,0.0,0.0,0.0,0.0,0.0,0.0,0.0,0.0,1769807039.4908893,0.0,-44.0
155.0,-47824.440637164196,-18399.106669319473,-187500.02235174447,-67948.96786796664,-71774.15600707007,-48662.16166760465,-38581.4578630278,-64786.933635107715,0.016,1.004,0.018000000000000002,192.0,0.0,0.0,0.0,0.0,0.0,0.0,0.0,0.0,0.0,1769807039.4908931,0.0,-44.0
156.0,-47728.015211584,-18281.335327784458,-187500.02235174447,-67705.64677782617,-71653.23306956686,-48260.232598809314,-38080.01882791744,-64543.72430368952,0.016,1.004,0.018000000000000002,192.0,0.0,0.0,0.0,0.0,0.0,0.0,0.0,0.0,0.0,1769807039.4908967,0.0,-44.0
157.0,-48359.027309301775,-18886.821733334273,-187500.02235174447,-68242.91565929838,-72272.68931540124,-48606.86345182222,-38328.793743705006,-65062.26242330819,0.016,1.004,0.018000000000000002,192.0,0.0,0.0,0.0,0.0,0.0,0.0,0.0,0.0,0.0,1769807039.4909008,0.0,-44.0
158.0,-48523.536148492836,-19074.352869314298,-187500.02235174447,-68519.58555216617,-72447.9493436753,-48998.86834607939,-38795.31935397618,-65329.49988001584,0.016,1.004,0.018000000000000002,192.0,0.0,0.0,0.0,0.0,0.0,0.0,0.0,0.0,0.0,1769807039.4909043,0.0,-44.0
159.0,-47956.271225961595,-18509.457231695324,-187500.02235174447,-68055.09395064044,-71865.28406921435,-48744.304328477905,-38648.71426209382,-64872.451409393725,0.016,1.004,0.018000000000000002,192.0,0.0,0.0,0.0,0.0,0.0,0.0,0.0,0.0,0.0,1769807039.4909084,0.0,-44.0
160.0,-47655.57320780435,-18200.198495411696,-187500.02235174447,-67656.78586444687,-71565.05543769067,-48252.07421208313,-38090.904127467176,-64486.056802994826,0.014,1.0,0.016,192.0,0.0,112.0,31.0,64.0,0.0,128.0,0.0,0.0,0.0,1769807039.490912,0.0,-44.0
161.0,-48228.291955982684,-18761.271984728814,-187500.02235174447,-68116.78476533708,-72143.51858419403,-48492.6460376556,-38209.14485563575,-64930.78946242207,0.014,1.0,0.016,192.0,0.0,0.0,0.0,0.0,0.0,0.0,0.0,0.0,0.0,1769807039.490916,0.0,-44.0
162.0,-48585.13755621166,-19116.910590757205,-187500.02235174447,-68539.65741868704,-72494.39626865344,-48989.8605930639,-38749.87825749854,-65346.151929635045,0.014,1.0,0.016,192.0,0.0,0.0,0.0,0.0,0.0,0.0,0.0,0.0,0.0,1769807039.4909196,0.0,-44.0
163.0,-48084.81610832407,-18655.391771244023,-187500.02235174447,-68163.1422833374,-71988.06220150736,-48840.26036742453,-38719.90456818397,-64980.47739034622,0.014,1.0,0.016,192.0,0.0,0.0,0.0,0.0,0.0,0.0,0.0,0.0,0.0,1769807039.4909236,0.0,-44.0
164.0,-47615.27301255143,-18195.571684309445,-187500.02235174447,-67632.51186996841,-71517.7814981677,-48283.90309618749,-38135.58526463333,-64467.258985907916,0.014,1.0,0.016,192.0,0.0,0.0,0.0,0.0,0.0,0.0,0.0,0.0,0.0,1769807039.4909275,0.0,-44.0
165.0,-48078.89289604341,-18627.630904630532,-187500.02235174447,-67970.02321124353,-71997.11465801176,-48383.278952035784,-38108.62906082023,-64796.947216623696,0.014,1.0,0.016,192.0,0.0,0.0,0.0,0.0,0.0,0.0,0.0,0.0,0.0,1769807039.4909313,0.0,-44.0
166.0,-48555.90147446412,-19111.724986043573,-187500.02235174447,-68494.93157803197,-72477.09601844502,-48923.02887714254,-38660.31481746612,-65308.82451639468,0.014,1.0,0.016,192.0,0.0,0.0,0.0,0.0,0.0,0.0,0.0,0.0,0.0,1769807039.490935,0.0,-44.0
167.0,-48161.84021971706,-18750.386685179077,-187500.02235174447,-68242.53567964265,-72085.53815907695,-48887.42254822523,-38748.447745853395,-65059.222586062264,0.014,1.0,0.016,192.0,0.0,0.0,0.0,0.0,0.0,0.0,0.0,0.0,0.0,1769807039.490939,0.0,-44.0
168.0,-47611.87554739422,-18190.16256215126,-187500.02235174447,-67667.8723296967,-71531.52782100771,-48355.51808542229,-38228.389707611765,-64504.72050961501,0.014,1.0,0.016,192.0,0.0,0.0,0.0,0.0,0.0,0.0,0.0,0.0,0.0,1769807039.4909427,0.0,-44.0
169.0,-47972.31977848051,-18500.114202513007,-187500.02235174447,-67868.07690478288,-71881.19851126654,-48328.98656475384,-38067.50185102247,-64704.50040155654,0.014,1.0,0.016,192.0,0.0,0.0,0.0,0.0,0.0,0.0,0.0,0.0,0.0,1769807039.4909468,0.0,-44.0
170.0,-48550.40294532811,-19078.085610638336,-187500.02235174447,-68460.01815319278,-72466.07660842856,-48871.37399570632,-38594.39952306742,-65281.91301607049,0.012,1.002,0.016,192.0,0.0,96.0,31.0,80.0,0.0,128.0,0.0,0.0,0.0,1769807039.4909503,0.0,-44.0
171.0,-48302.812671996675,-18865.095837723715,-187500.02235174447,-68341.9338872354,-72210.2385413931,-48969.63226433185,-38807.4116477265,-65171.11541880554,0.012,1.002,0.016,192.0,0.0,0.0,0.0,0.0,0.0,0.0,0.0,0.0,0.0,1769807039.4909542,0.0,-44.0
172.0,-47629.82399819184,-18215.46473687467,-187500.02235174447,-67710.11712671723,-71553.27606836273,-48440.29825214127,-38323.339918057914,-64558.07412362983,0.012,1.002,0.016,192.0,0.0,0.0,0.0,0.0,0.0,0.0,0.0,0.0,0.0,1769807039.490958,0.0,-44.0
173.0,-47839.863340838354,-18373.044535284585,-187500.02235174447,-67770.91387163567,-71763.20365228697,-48277.17522110644,-38031.71670814952,-64617.753281325495,0.012,1.002,0.016,192.0,0.0,0.0,0.0,0.0,0.0,0.0,0.0,0.0,0.0,1769807039.490962,0.0,-44.0
174.0,-48500.33503774823,-19001.217961456536,-187500.02235174447,-68375.28268996271,-72400.96597683025,-48773.719224181084,-38482.6855042798,-65205.44769828889,0.012,1.002,0.016,192.0,0.0,0.0,0.0,0.0,0.0,0.0,0.0,0.0,0.0,1769807039.4909656,0.0,-44.0
175.0,-48399.081635365685,-18940.577678749287,-187500.02235174447,-68407.53625721172,-72304.74171695014,-48994.19683148823,-38811.77023789528,-65233.99087595831,0.012,1.002,0.016,192.0,0.0,0.0,0.0,0.0,0.0,0.0,0.0,0.0,0.0,1769807039.4909694,0.0,-44.0
176.0,-47736.4641709881,-18321.702578270742,-187500.02235174447,-67823.6639885502,-71658.6645434695,-48560.81885824429,-38454.79052719957,-64662.143845813735,0.012,1.002,0.016,192.0,0.0,0.0,0.0,0.0,0.0,0.0,0.0,0.0,0.0,1769807039.4909732,0.0,-44.0
177.0,-47767.71190973662,-18328.206935907237,-187500.02235174447,-67703.61276908073,-71682.13387514757,-48258.153886574975,-38038.28812101938,-64552.93322240511,0.012,1.002,0.016,192.0,0.0,0.0,0.0,0.0,0.0,0.0,0.0,0.0,0.0,1769807039.490977,0.0,-44.0
178.0,-48399.23809757687,-18944.444530540055,-187500.02235174447,-68272.55407244612,-72320.61145551341,-48669.24717059698,-38377.6099535954,-65107.72587153028,0.012,1.002,0.016,192.0,0.0,0.0,0.0,0.0,0.0,0.0,0.0,0.0,0.0,1769807039.4909809,0.0,-44.0
179.0,-48444.813304521245,-19012.639702873195,-187500.02235174447,-68436.61587674808,-72366.20901420225,-48984.138546483344,-38790.133749262546,-65264.836283306635,0.012,1.002,0.016,192.0,0.0,0.0,0.0,0.0,0.0,0.0,0.0,0.0,0.0,1769807039.4909847,0.0,-44.0
180.0,-47810.157872457254,-18381.649956899877,-187500.02235174447,-67885.31009975793,-71719.03660524328,-48628.05290556585,-38526.71844085675,-64725.555744833444,0.014,1.008,0.014,192.0,0.0,112.0,31.0,128.0,0.0,112.0,0.0,0.0,0.0,1769807039.4909887,0.0,-44.0
181.0,-47671.10767020079,-18219.17512645425,-187500.02235174447,-67630.94724785653,-71590.6928885809,-48226.92849957091,-38035.784725640384,-64481.5193988704,0.014,1.008,0.014,192.0,0.0,0.0,0.0,0.0,0.0,0.0,0.0,0.0,0.0,1769807039.4909923,0.0,-44.0
182.0,-48294.11784340356,-18831.747034996395,-187500.02235174447,-68178.85555968947,-72231.56210560347,-48577.09092820775,-38287.10774029586,-65016.50840240817,0.014,1.008,0.014,192.0,0.0,0.0,0.0,0.0,0.0,0.0,0.0,0.0,0.0,1769807039.490996,0.0,-44.0
183.0,-48506.682933173535,-19052.470511492553,-187500.02235174447,-68487.77901980627,-72438.0475208816,-48999.98593330216,-38777.08033050065,-65319.083967099665,0.014,1.008,0.014,192.0,0.0,0.0,0.0,0.0,0.0,0.0,0.0,0.0,0.0,1769807039.491,0.0,-44.0
184.0,-47936.86991177439,-18492.536961142654,-187500.02235174447,-68026.57312471546,-71859.40556042262,-48752.485066948546,-38639.14771546695,-64870.37269715938,0.014,1.008,0.014,192.0,0.0,0.0,0.0,0.0,0.0,0.0,0.0,0.0,0.0,1769807039.4910035,0.0,-44.0
185.0,-47638.608233762774,-18186.87685571633,-187500.02235174447,-67643.03954160685,-71562.37322835604,-48283.03137815373,-38109.143150942706,-64499.33373920128,0.014,1.008,0.014,192.0,0.0,0.0,0.0,0.0,0.0,0.0,0.0,0.0,0.0,1769807039.4910076,0.0,-44.0
186.0,-48201.20164170285,-18728.28080991278,-187500.02235174447,-68080.32907013048,-72118.55168563745,-48502.14552904911,-38205.30035558943,-64927.3249420315,0.014,1.008,0.014,192.0,0.0,0.0,0.0,0.0,0.0,0.0,0.0,0.0,0.0,1769807039.4910114,0.0,-44.0
187.0,-48580.33193115377,-19120.4645181256,-187500.02235174447,-68522.53598243427,-72487.64604182793,-49003.53986067056,-38746.570199319154,-65357.03722918478,0.014,1.008,0.014,192.0,0.0,0.0,0.0,0.0,0.0,0.0,0.0,0.0,0.0,1769807039.4910152,0.0,-44.0
188.0,-48087.85594556999,-18665.807684160198,-187500.02235174447,-68156.4814634897,-71986.83285556232,-48863.081498513406,-38721.80446646267,-64995.94479750929,0.014,1.008,0.014,192.0,0.0,0.0,0.0,0.0,0.0,0.0,0.0,0.0,0.0,1769807039.4910188,0.0,-44.0
189.0,-47626.47123652354,-18197.60569305488,-187500.02235174447,-67643.44187300705,-71524.55407673765,-48321.61048908359,-38156.193573021126,-64490.90713154163,0.014,1.008,0.014,192.0,0.0,0.0,0.0,0.0,0.0,0.0,0.0,0.0,0.0,1769807039.4910228,0.0,-44.0
190.0,-48065.191276692305,-18612.990512012304,-187500.02235174447,-67965.08347571891,-71991.10203875328,-48410.749245971354,-38115.558101601375,-64807.89957140679,0.014,1.008,0.014,192.0,0.0,112.0,31.0,128.0,0.0,112.0,0.0,0.0,0.0,1769807039.4910264,0.0,-44.0
191.0,-48534.17557885356,-19100.951445216113,-187500.02235174447,-68485.09681047163,-72475.44198935533,-48938.83156047244,-38651.26236096172,-65314.25599029732,0.014,1.008,0.014,192.0,0.0,0.0,0.0,0.0,0.0,0.0,0.0,0.0,0.0,1769807039.4910305,0.0,-44.0
192.0,-48195.63605733348,-18771.643194156077,-187500.02235174447,-68257.24312749424,-72114.23779895756,-48933.37773482534,-38765.88210652854,-65089.9115311994,0.014,1.008,0.014,192.0,0.0,0.0,0.0,0.0,0.0,0.0,0.0,0.0,0.0,1769807039.491034,0.0,-44.0
193.0,-47609.34980027078,-18168.816646196443,-187500.02235174447,-67647.53224224236,-71520.77663192472,-48377.6686641775,-38228.59087331186,-64499.28903571237,0.014,1.008,0.014,192.0,0.0,0.0,0.0,0.0,0.0,0.0,0.0,0.0,0.0,1769807039.491038,0.0,-44.0
194.0,-47924.19647266823,-18460.104579938004,-187500.02235174447,-67822.03231120495,-71845.30160967131,-48311.82042501216,-38035.98589134048,-64669.16229357271,0.014,1.008,0.014,192.0,0.0,0.0,0.0,0.0,0.0,0.0,0.0,0.0,0.0,1769807039.491042,0.0,-44.0
195.0,-48505.94532560651,-19031.079892048823,-187500.02235174447,-68404.78699264371,-72427.8998288989,-48836.23705342258,-38538.11783052896,-65235.30962888118,0.014,1.008,0.014,192.0,0.0,0.0,0.0,0.0,0.0,0.0,0.0,0.0,0.0,1769807039.4910457,0.0,-44.0
196.0,-48293.49199455881,-18836.083273420725,-187500.02235174447,-68329.59572429606,-72214.10539318388,-48973.096784722424,-38789.127920762054,-65159.93954657788,0.014,1.008,0.014,192.0,0.0,0.0,0.0,0.0,0.0,0.0,0.0,0.0,0.0,1769807039.4910493,0.0,-44.0
197.0,-47621.553852743375,-18196.08577443192,-187500.02235174447,-67688.4806380845,-71532.51129776375,-48445.17093243253,-38310.93469988521,-64534.783605907396,0.014,1.008,0.014,192.0,0.0,0.0,0.0,0.0,0.0,0.0,0.0,0.0,0.0,1769807039.491053,0.0,-44.0
198.0,-47789.9295437252,-18346.378904149402,-187500.02235174447,-67717.91788553214,-71704.08328820269,-48249.973148104335,-37981.67115231409,-64559.14700736368,0.014,1.008,0.014,192.0,0.0,0.0,0.0,0.0,0.0,0.0,0.0,0.0,0.0,1769807039.4910572,0.0,-44.0
199.0,-48457.86672328314,-18995.831191042806,-187500.02235174447,-68346.29247740417,-72368.84652004797,-48761.38106124176,-38435.523323479094,-65168.433209470895,0.014,1.008,0.014,192.0,0.0,0.0,0.0,0.0,0.0,0.0,0.0,0.0,0.0,1769807039.4910607,0.0,-44.0
200.0,-48419.980516431395,-18990.95851075155,-187500.02235174447,-68417.1475073275,-72311.00020539763,-49017.308535255026,-38800.035572056244,-65239.37764637204,0.014,1.002,0.008,192.0,0.0,112.0,31.0,80.0,0.0,64.0,0.0,0.0,0.0,1769807039.4910648,0.0,-44.0
201.0,-47738.788752411456,-18327.67049404031,-187500.02235174447,-67806.11786915277,-71627.21563902088,-48573.33583513926,-38431.276492032586,-64645.89412759473,0.014,1.002,0.008,192.0,0.0,0.0,0.0,0.0,0.0,0.0,0.0,0.0,0.0,1769807039.4910688,0.0,-44.0
202.0,-47727.1658452947,-18273.489865480646,-187500.02235174447,-67655.17653884609,-71613.78224060324,-48235.66803165293,-37982.02878022537,-64496.897399055655,0.014,1.002,0.008,192.0,0.0,0.0,0.0,0.0,0.0,0.0,0.0,0.0,0.0,1769807039.4910724,0.0,-44.0
203.0,-48382.586047957666,-18907.631207422164,-187500.02235174447,-68264.21687176429,-72297.27623430207,-48670.3871095642,-38340.26018861058,-65086.849342209025,0.014,1.002,0.008,192.0,0.0,0.0,0.0,0.0,0.0,0.0,0.0,0.0,0.0,1769807039.4910765,0.0,-44.0
204.0,-48463.54406637479,-19018.89819132068,-187500.02235174447,-68460.73340901535,-72379.77652308662,-49030.429009250285,-38784.43405442644,-65285.24342599433,0.014,1.002,0.008,192.0,0.0,0.0,0.0,0.0,0.0,0.0,0.0,0.0,0.0,1769807039.4910803,0.0,-44.0
205.0,-47833.448390179685,-18402.481782732222,-187500.02235174447,-67891.70269867215,-71709.51476210532,-48661.468763526536,-38513.86618779495,-64728.39441637927,0.014,1.002,0.008,192.0,0.0,0.0,0.0,0.0,0.0,0.0,0.0,0.0,0.0,1769807039.491084,0.0,-44.0
206.0,-47650.92404495765,-18204.31121639147,-187500.02235174447,-67591.04938400381,-71530.61139948505,-48215.61851687652,-37986.163852949605,-64434.26781109188,0.014,1.002,0.008,192.0,0.0,0.0,0.0,0.0,0.0,0.0,0.0,0.0,0.0,1769807039.4910884,0.0,-44.0
207.0,-48273.97892164933,-18809.954084152472,-187500.02235174447,-68136.1860795243,-72178.45436077766,-48553.97922444096,-38225.93101572168,-64963.9818029382,0.014,1.002,0.008,192.0,0.0,0.0,0.0,0.0,0.0,0.0,0.0,0.0,0.0,1769807039.4910922,0.0,-44.0
208.0,-48521.74800893641,-19056.91850863916,-187500.02235174447,-68476.35727838961,-72426.2457998092,-49001.23763099166,-38744.603245807084,-65299.81676337919,0.014,1.002,0.008,192.0,0.0,0.0,0.0,0.0,0.0,0.0,0.0,0.0,0.0,1769807039.491096,0.0,-44.0
209.0,-47961.792106842055,-18514.866353853507,-187500.02235174447,-68021.81220314649,-71850.0625312403,-48766.79018339994,-38629.78233454017,-64861.09672321042,0.014,1.002,0.008,192.0,0.0,0.0,0.0,0.0,0.0,0.0,0.0,0.0,0.0,1769807039.4911003,0.0,-44.0
210.0,-47602.9348496121,-18169.30838457446,-187500.02235174447,-67577.86185477518,-71498.2237217693,-48248.94496785939,-38063.65735097615,-64433.93253492505,0.012,1.0,0.012,192.0,0.0,96.0,31.0,64.0,0.0,96.0,0.0,0.0,0.0,1769807039.4911044,0.0,-44.0
211.0,-48135.08518160405,-18674.927195897963,-187500.02235174447,-67998.83460984642,-72044.92503940166,-48444.4333248655,-38138.133363501234,-64846.74690327012,0.012,1.0,0.012,192.0,0.0,0.0,0.0,0.0,0.0,0.0,0.0,0.0,0.0,1769807039.4911084,0.0,-44.0
212.0,-48534.98024165395,-19079.136142627733,-187500.02235174447,-68459.97344970387,-72438.11457611497,-48955.7518310251,-38685.01349508923,-65295.055841810215,0.012,1.0,0.012,192.0,0.0,0.0,0.0,0.0,0.0,0.0,0.0,0.0,0.0,1769807039.4911125,0.0,-44.0
213.0,-48090.493451415714,-18659.83976839063,-187500.02235174447,-68124.92080031883,-71964.30229715137,-48845.62478609381,-38690.86965213653,-64961.76898023713,0.012,1.0,0.012,192.0,0.0,0.0,0.0,0.0,0.0,0.0,0.0,0.0,0.0,1769807039.491116,0.0,-44.0
214.0,-47622.06794286585,-18162.98284089361,-187500.02235174447,-67597.50903815139,-71477.74952384824,-48305.49488133132,-38131.80781982039,-64442.11327339569,0.012,1.0,0.012,192.0,0.0,0.0,0.0,0.0,0.0,0.0,0.0,0.0,0.0,1769807039.4911203,0.0,-44.0
215.0,-48049.47800034023,-18558.04992414116,-187500.02235174447,-67900.62104470981,-71919.66586347412,-48366.090460549654,-38064.90904866565,-64732.82006178142,0.012,1.0,0.012,192.0,0.0,0.0,0.0,0.0,0.0,0.0,0.0,0.0,0.0,1769807039.4911244,0.0,-44.0
216.0,-48567.45732634751,-19089.485000310542,-187500.02235174447,-68450.78688273273,-72439.18745984882,-48906.10860658987,-38610.20220639732,-65270.82655082066,0.012,1.0,0.012,192.0,0.0,0.0,0.0,0.0,0.0,0.0,0.0,0.0,0.0,1769807039.491128,0.0,-44.0
217.0,-48243.58054919011,-18800.47694450342,-187500.02235174447,-68260.35001997353,-72110.05802274443,-48942.92192970776,-38760.58474309263,-65087.85517070952,0.012,1.0,0.012,192.0,0.0,0.0,0.0,0.0,0.0,0.0,0.0,0.0,0.0,1769807039.4911318,0.0,-44.0
218.0,-47615.63064046272,-18191.54837030749,-187500.02235174447,-67642.39134101765,-71495.2285880123,-48394.253658563335,-38230.066088445914,-64488.38138441818,0.012,1.0,0.012,192.0,0.0,0.0,0.0,0.0,0.0,0.0,0.0,0.0,0.0,1769807039.4911356,0.0,-44.0
219.0,-47918.317963876485,-18451.946193211817,-187500.02235174447,-67800.64169176122,-71801.98392891693,-48316.26842215877,-38018.752696365445,-64642.98840081554,0.012,1.0,0.012,192.0,0.0,0.0,0.0,0.0,0.0,0.0,0.0,0.0,0.0,1769807039.4911397,0.0,-44.0
220.0,-48528.52058750637,-19030.63285715972,-187500.02235174447,-68393.63347216052,-72398.37317447343,-48841.266195925025,-38518.85062680848,-65222.47972756383,0.006,1.004,0.008,192.0,0.0,48.0,31.0,96.0,0.0,64.0,0.0,0.0,0.0,1769807039.4911432,0.0,-44.0
221.0,-48294.83309922613,-18840.799491500795,-187500.02235174447,-68284.78047666317,-72157.2872587785,-48931.18726386873,-38738.23299863732,-65117.203011179336,0.006,1.004,0.008,192.0,0.0,0.0,0.0,0.0,0.0,0.0,0.0,0.0,0.0,1769807039.4911473,0.0,-44.0
222.0,-47619.5421957424,-18197.717451777156,-187500.02235174447,-67662.46320753852,-71502.51525670472,-48417.052437907754,-38289.16410078575,-64509.01204455043,0.006,1.004,0.008,192.0,0.0,0.0,0.0,0.0,0.0,0.0,0.0,0.0,0.0,1769807039.4911509,0.0,-44.0
223.0,-47802.826500275914,-18333.839575509977,-187500.02235174447,-67696.21434166603,-71683.98906993736,-48227.7331623713,-37980.79943428033,-64542.36084727775,0.006,1.004,0.008,192.0,0.0,0.0,0.0,0.0,0.0,0.0,0.0,0.0,0.0,1769807039.4911547,0.0,-44.0
224.0,-48434.39739160507,-18961.722429004007,-187500.02235174447,-68296.11281110201,-72328.36751083941,-48711.69313331761,-38402.28627947406,-65126.79190955066,0.006,1.004,0.008,192.0,0.0,0.0,0.0,0.0,0.0,0.0,0.0,0.0,0.0,1769807039.4911585,0.0,-44.0
225.0,-48401.38386504458,-18946.724408474496,-187500.02235174447,-68382.54700691068,-72291.10715283241,-48980.98695051515,-38770.01717925277,-65211.572076269644,0.006,1.004,0.008,192.0,0.0,0.0,0.0,0.0,0.0,0.0,0.0,0.0,0.0,1769807039.4911623,0.0,-44.0
226.0,-47739.280490789475,-18303.642368750854,-187500.02235174447,-67785.01782238696,-71618.99019706133,-48553.97922444096,-38427.36493675291,-64630.58318264284,0.006,1.004,0.008,192.0,0.0,0.0,0.0,0.0,0.0,0.0,0.0,0.0,0.0,1769807039.491166,0.0,-44.0
227.0,-47716.8616911008,-18258.067161806484,-187500.02235174447,-67615.79276511584,-71586.71427806787,-48200.128757968996,-37969.98118996396,-64465.58260507377,0.006,1.004,0.008,192.0,0.0,0.0,0.0,0.0,0.0,0.0,0.0,0.0,0.0,1769807039.4911697,0.0,-44.0
228.0,-48372.70657690842,-18910.671044668085,-187500.02235174447,-68213.25489440619,-72260.1052832729,-48634.51255971343,-38312.45461850818,-65044.850414377506,0.006,1.004,0.008,192.0,0.0,0.0,0.0,0.0,0.0,0.0,0.0,0.0,0.0,1769807039.4911735,0.0,-44.0
229.0,-48463.20879020796,-19033.002142071982,-187500.02235174447,-68426.26701906527,-72361.67161007781,-48991.425215175776,-38764.00455999429,-65255.71677156887,0.006,1.004,0.008,192.0,0.0,0.0,0.0,0.0,0.0,0.0,0.0,0.0,0.0,1769807039.4911776,0.0,-44.0
230.0,-47829.13450349981,-18401.990044354206,-187500.02235174447,-67895.83777139637,-71727.26204720284,-48652.72923144451,-38536.687318883814,-64737.75979730604,0.006,1.004,0.008,192.0,0.0,0.0,0.0,0.0,0.0,0.0,0.0,0.0,0.0,1769807039.4911811,0.0,-44.0
231.0,-47633.28851858241,-18167.766114207043,-187500.02235174447,-67574.6432035736,-71520.9330941359,-48214.29976395366,-38003.97819328048,-64430.60212500121,0.01,1.01,0.008,192.0,0.0,80.0,31.0,144.0,0.0,64.0,0.0,0.0,0.0,1769807039.4911852,0.0,-44.0
232.0,-48252.901226627975,-18760.064990528226,-187500.02235174447,-68094.18715169276,-72148.61478192983,-48533.92970966455,-38210.083628902874,-64938.94784914826,0.01,1.01,0.008,192.0,0.0,0.0,0.0,0.0,0.0,0.0,0.0,0.0,0.0,1769807039.4911892,0.0,-44.0
233.0,-48528.475884017455,-19075.649270492708,-187500.02235174447,-68451.05510366621,-72413.14767755839,-48991.9616570427,-38728.33117584362,-65289.26673999629,0.01,1.01,0.008,192.0,0.0,0.0,0.0,0.0,0.0,0.0,0.0,0.0,0.0,1769807039.4911928,0.0,-44.0
234.0,-47975.985464571175,-18568.063505657137,-187500.02235174447,-68011.35158674141,-71845.50277537141,-48761.71633740859,-38620.394601868946,-64857.54279584203,0.01,1.01,0.008,192.0,0.0,0.0,0.0,0.0,0.0,0.0,0.0,0.0,0.0,1769807039.4911966,0.0,-44.0
235.0,-47608.03104734791,-18191.928349963233,-187500.02235174447,-67569.01056397088,-71480.18586399387,-48246.24040678029,-38058.82937417381,-64426.64586623262,0.01,1.01,0.008,192.0,0.0,0.0,0.0,0.0,0.0,0.0,0.0,0.0,0.0,1769807039.4912004,0.0,-44.0
236.0,-48146.506923020715,-18693.79206821824,-187500.02235174447,-67988.46340041918,-72025.23315253653,-48440.45471435246,-38120.72135457055,-64832.1512141408,0.01,1.01,0.008,192.0,0.0,0.0,0.0,0.0,0.0,0.0,0.0,0.0,0.0,1769807039.4912043,0.0,-44.0
237.0,-48577.38150088567,-19133.808509565417,-187500.02235174447,-68479.08419121316,-72454.18548037834,-48976.62836034637,-38681.683085165394,-65308.9139233725,0.01,1.01,0.008,192.0,0.0,0.0,0.0,0.0,0.0,0.0,0.0,0.0,0.0,1769807039.491208,0.0,-44.0
238.0,-48103.99390506672,-18702.21867587789,-187500.02235174447,-68149.61947794193,-71986.60933811776,-48866.65777762625,-38698.84922490707,-64983.91955899234,0.01,1.01,0.008,192.0,0.0,0.0,0.0,0.0,0.0,0.0,0.0,0.0,0.0,1769807039.491212,0.0,-44.0
239.0,-47595.55877394185,-18176.259777100062,-187500.02235174447,-67596.68202360654,-71475.20142498033,-48314.61439306908,-38133.461848910076,-64442.023866417876,0.01,1.01,0.008,192.0,0.0,0.0,0.0,0.0,0.0,0.0,0.0,0.0,0.0,1769807039.491216,0.0,-44.0
240.0,-48014.6316307344,-18545.376485035,-187500.02235174447,-67869.03802979446,-71898.67757543059,-48356.12158252258,-38041.596179198765,-64714.648093539254,0.01,1.01,0.008,192.0,0.0,0.0,0.0,0.0,0.0,0.0,0.0,0.0,0.0,1769807039.4912195,0.0,-44.0
241.0,-48557.622558787174,-19084.92524444166,-187500.02235174447,-68436.03473139224,-72441.02030289416,-48903.694618188696,-38589.99622940973,-65266.13268448505,0.01,1.004,0.014,192.0,0.0,80.0,31.0,96.0,0.0,112.0,0.0,0.0,0.0,1769807039.9706051,0.0,-44.0
242.0,-48226.99555480428,-18778.61693842613,-187500.02235174447,-68245.84373782203,-72109.07454598839,-48929.01914465656,-38736.221341636345,-65075.62876649246,0.01,1.004,0.014,192.0,0.0,0.0,0.0,0.0,0.0,0.0,0.0,0.0,0.0,1769807039.9706397,0.0,-44.0
243.0,-47602.2866490229,-18183.389983581303,-187500.02235174447,-67637.54101247084,-71492.74754437775,-48384.418891003006,-38219.69487901865,-64478.94894825804,0.01,1.004,0.014,192.0,0.0,0.0,0.0,0.0,0.0,0.0,0.0,0.0,0.0,1769807039.9706569,0.0,-44.0
244.0,-47869.747623175106,-18428.74508246721,-187500.02235174447,-67772.85847340328,-71774.55833847026,-48290.65332301299,-37988.51078611741,-64610.26544693297,0.01,1.004,0.014,192.0,0.0,0.0,0.0,0.0,0.0,0.0,0.0,0.0,0.0,1769807039.9706728,0.0,-44.0
245.0,-48469.22140946644,-18995.182990453603,-187500.02235174447,-68360.39642815548,-72367.81833980302,-48798.44025354866,-38462.50187903665,-65176.50218921926,0.01,1.004,0.014,192.0,0.0,0.0,0.0,0.0,0.0,0.0,0.0,0.0,0.0,1769807039.970687,0.0,-44.0
246.0,-48323.510387362294,-18865.92285226856,-187500.02235174447,-68332.85907898654,-72199.57675928793,-48960.57980782745,-38734.76847824675,-65140.76174983523,0.01,1.004,0.014,192.0,0.0,0.0,0.0,0.0,0.0,0.0,0.0,0.0,0.0,1769807039.970699,0.0,-44.0
247.0,-47659.32830087284,-18242.242126732126,-187500.02235174447,-67705.40090863717,-71521.42483251392,-48465.10868848666,-38295.2884787665,-64529.5309459604,0.01,1.004,0.014,192.0,0.0,0.0,0.0,0.0,0.0,0.0,0.0,0.0,0.0,1769807039.9707117,0.0,-44.0
248.0,-47757.60892124283,-18331.15736617534,-187500.02235174447,-67678.33294610179,-71638.54797345972,-48220.64765937897,-37928.11637259917,-64496.875047311194,0.01,1.004,0.014,192.0,0.0,0.0,0.0,0.0,0.0,0.0,0.0,0.0,0.0,1769807039.9707165,0.0,-44.0
249.0,-48410.14574887106,-18964.80696973884,-187500.02235174447,-68300.9184361599,-72304.40644078332,-48705.0993687033,-38354.40884285079,-65098.248731881235,0.01,1.004,0.014,192.0,0.0,0.0,0.0,0.0,0.0,0.0,0.0,0.0,0.0,1769807039.9707205,0.0,-44.0
250.0,-48380.708501423425,-18954.36870507821,-187500.02235174447,-68388.09023953561,-72261.93812631823,-48972.761508555595,-38721.536245529205,-65183.878264889514,0.01,1.004,0.014,192.0,0.0,0.0,0.0,0.0,0.0,0.0,0.0,0.0,0.0,1769807039.9707277,0.0,-44.0
251.0,-47710.603202653314,-18289.80663893302,-187500.02235174447,-67783.83317993084,-71572.38680987201,-48541.976337668464,-38369.94330524722,-64588.91953097815,0.012,1.0,0.018000000000000002,192.0,0.0,96.0,31.0,64.0,0.0,144.0,0.0,0.0,0.0,1769807039.9707322,0.0,-44.0
252.0,-47662.88222824124,-18217.185821197727,-187500.02235174447,-67618.47497445047,-71542.23430660181,-48193.64675207696,-37920.82970390674,-64424.813023187286,0.012,1.0,0.018000000000000002,192.0,0.0,0.0,0.0,0.0,0.0,0.0,0.0,0.0,0.0,1769807039.9707365,0.0,-44.0
253.0,-48328.51717812028,-18865.051134234804,-187500.02235174447,-68210.46092634927,-72217.30169264099,-48612.25022223595,-38248.752146810555,-65001.085698734016,0.012,1.0,0.018000000000000002,192.0,0.0,0.0,0.0,0.0,0.0,0.0,0.0,0.0,0.0,1769807039.9707406,0.0,-44.0
254.0,-48488.913296331564,-19047.28490677892,-187500.02235174447,-68474.14445568854,-72368.06420899203,-49011.74295088565,-38731.95215844538,-65255.739123313324,0.012,1.0,0.018000000000000002,192.0,0.0,0.0,0.0,0.0,0.0,0.0,0.0,0.0,0.0,1769807039.9707448,0.0,-44.0
255.0,-47854.25786426757,-18433.528355780647,-187500.02235174447,-67939.49072831759,-71720.17654421051,-48676.01974916694,-38507.406533647365,-64732.03775072548,0.012,1.0,0.018000000000000002,192.0,0.0,0.0,0.0,0.0,0.0,0.0,0.0,0.0,0.0,1769807039.9707491,0.0,-44.0
0.0,-47629.19814934709,-18189.424954584236,-187500.02235174447,-67606.02505278887,-71495.7203263903,-48217.33960119958,-37972.17166092058,-64405.657578189086,0.012,1.0,0.018000000000000002,192.0,0.0,0.0,0.0,0.0,0.0,0.0,0.0,0.0,0.0,1769807039.9707532,0.0,-44.0
1.0,-48225.497987925766,-18761.607260895642,-187500.02235174447,-68101.78674480757,-72100.96086275112,-48509.63336344163,-38149.063366539885,-64890.623377635886,0.012,1.0,0.018000000000000002,192.0,0.0,0.0,0.0,0.0,0.0,0.0,0.0,0.0,0.0,1769807039.9707575,0.0,-44.0
2.0,-48512.6508489431,-19076.588043759828,-187500.02235174447,-68488.29310992874,-72397.9931948177,-48989.681779108265,-38679.76083514224,-65267.65260310801,0.012,1.0,0.018000000000000002,192.0,0.0,0.0,0.0,0.0,0.0,0.0,0.0,0.0,0.0,1769807039.9707615,0.0,-44.0
3.0,-47925.58228082446,-18528.94795286035,-187500.02235174447,-68036.51965099807,-71816.66902502406,-48758.4082792292,-38569.32086578856,-64825.42333905976,0.012,1.0,0.018000000000000002,192.0,0.0,0.0,0.0,0.0,0.0,0.0,0.0,0.0,0.0,1769807039.970766,0.0,-44.0
4.0,-47536.30429939083,-18111.573828646404,-187500.02235174447,-67549.2963253613,-71409.93433117084,-48205.76139757173,-37984.465120371,-64351.1416734626,0.012,1.0,0.018000000000000002,192.0,0.0,0.0,0.0,0.0,0.0,0.0,0.0,0.0,0.0,1769807039.9707732,0.0,-44.0
5.0,-48089.19705023731,-18621.528878394234,-187500.02235174447,-67965.93284200822,-71961.50832909446,-48396.712350453425,-38047.78761241289,-64760.22330048362,0.012,1.004,0.02,192.0,0.0,96.0,31.0,96.0,0.0,160.0,0.0,0.0,0.0,1769807039.9707775,0.0,-44.0
6.0,-48516.58475596723,-19052.157587070178,-187500.02235174447,-68454.74314150133,-72391.95822381476,-48924.48174053213,-38600.14392139243,-65235.35433237009,0.012,1.004,0.02,192.0,0.0,0.0,0.0,0.0,0.0,0.0,0.0,0.0,0.0,1769807039.9707818,0.0,-44.0
7.0,-48076.83653555352,-18634.91757332296,-187500.02235174447,-68150.37943725342,-71951.9864859565,-48844.03781223748,-38640.15354396743,-64936.89148865837,0.012,1.004,0.02,192.0,0.0,0.0,0.0,0.0,0.0,0.0,0.0,0.0,0.0,1769807039.970786,0.0,-44.0
8.0,-47519.562842793806,-18100.86734305231,-187500.02235174447,-67562.50620633438,-71404.81578169057,-48275.141212361006,-38068.77590045642,-64372.06290627276,0.012,1.004,0.02,192.0,0.0,0.0,0.0,0.0,0.0,0.0,0.0,0.0,0.0,1769807039.970796,0.0,-44.0
9.0,-47932.73483905016,-18484.155056971915,-187500.02235174447,-67832.82820377687,-71826.72731002895,-48304.66786678647,-37969.08712018575,-64638.4062932022,0.012,1.004,0.02,192.0,0.0,0.0,0.0,0.0,0.0,0.0,0.0,0.0,0.0,1769807039.9708004,0.0,-44.0
10.0,-48505.18536629503,-19046.949630612093,-187500.02235174447,-68411.73838516932,-72385.99030804519,-48859.996957778574,-38520.99639427619,-65205.64886398899,0.012,1.004,0.02,192.0,0.0,0.0,0.0,0.0,0.0,0.0,0.0,0.0,0.0,1769807039.9708056,0.0,-44.0
11.0,-48192.52916485419,-18764.580042908197,-187500.02235174447,-68234.57845861655,-72072.0600571704,-48903.91813563325,-38686.04167533418,-65035.77560612865,0.012,1.004,0.02,192.0,0.0,0.0,0.0,0.0,0.0,0.0,0.0,0.0,0.0,1769807039.97081,0.0,-44.0
12.0,-47551.34702340925,-18128.762320132533,-187500.02235174447,-67611.92591332506,-71436.86818323948,-48352.947634809934,-38170.76691040598,-64428.657523233596,0.012,1.004,0.02,192.0,0.0,0.0,0.0,0.0,0.0,0.0,0.0,0.0,0.0,1769807039.9708142,0.0,-44.0
13.0,-47825.2900034535,-18346.289497171583,-187500.02235174447,-67722.90232454566,-71697.40011661054,-48230.23655775029,-37917.655756194086,-64535.78943440789,0.012,1.004,0.02,192.0,0.0,0.0,0.0,0.0,0.0,0.0,0.0,0.0,0.0,1769807039.9708183,0.0,-44.0
14.0,-48464.862819297654,-18988.52217060592,-187500.02235174447,-68350.49460536178,-72343.47729009119,-48779.597732972834,-38426.42616348579,-65148.875433072506,0.012,1.004,0.02,192.0,0.0,0.0,0.0,0.0,0.0,0.0,0.0,0.0,0.0,1769807039.9708223,0.0,-44.0
15.0,-48326.885500775046,-18890.88975082514,-187500.02235174447,-68346.06895995962,-72207.10929716937,-48976.78482255755,-38734.29909161319,-65148.67426737241,0.012,1.004,0.012,192.0,0.0,96.0,31.0,96.0,0.0,96.0,0.0,0.0,0.0,1769807039.9708288,0.0,-44.0
16.0,-47652.77923974744,-18231.915620793774,-187500.02235174447,-67728.7361298485,-71537.42868154391,-48489.91912483205,-38319.04838312249,-64547.34528629128,0.012,1.004,0.012,192.0,0.0,0.0,0.0,0.0,0.0,0.0,0.0,0.0,0.0,1769807039.9708335,0.0,-44.0
17.0,-47728.506949962015,-18280.95534812872,-187500.02235174447,-67670.95687043153,-71624.42167096397,-48232.09175254009,-37936.58768374773,-64493.23171296498,0.012,1.004,0.012,192.0,0.0,0.0,0.0,0.0,0.0,0.0,0.0,0.0,0.0,1769807039.9708378,0.0,-44.0
18.0,-48371.90191410803,-18895.58361716075,-187500.02235174447,-68257.28783098314,-72265.40264670881,-48685.83216498282,-38316.276766810035,-65065.793998932124,0.012,1.004,0.012,192.0,0.0,0.0,0.0,0.0,0.0,0.0,0.0,0.0,0.0,1769807039.970842,0.0,-44.0
19.0,-48383.18954505796,-18959.46490281402,-187500.02235174447,-68393.72287913834,-72281.808827139,-48993.28040996557,-38721.62565250703,-65197.803401685174,0.012,1.004,0.012,192.0,0.0,0.0,0.0,0.0,0.0,0.0,0.0,0.0,0.0,1769807039.970846,0.0,-44.0
20.0,-47700.701379859616,-18302.256560594626,-187500.02235174447,-67800.70874699458,-71602.94164454241,-48577.40385263012,-38404.90143357532,-64621.48602264954,0.012,1.004,0.012,192.0,0.0,0.0,0.0,0.0,0.0,0.0,0.0,0.0,0.0,1769807039.97085,0.0,-44.0
21.0,-47620.1903963316,-18182.048878913985,-187500.02235174447,-67577.66068907508,-71509.24313178577,-48187.50002235175,-37914.571215459255,-64407.64688344561,0.012,1.004,0.012,192.0,0.0,0.0,0.0,0.0,0.0,0.0,0.0,0.0,0.0,1769807039.9708543,0.0,-44.0
22.0,-48287.233506111326,-18833.199898385992,-187500.02235174447,-68163.72342869324,-72182.790599202,-48591.79837605934,-38221.840646486366,-64977.638718800394,0.012,1.004,0.012,192.0,0.0,0.0,0.0,0.0,0.0,0.0,0.0,0.0,0.0,1769807039.9708583,0.0,-44.0
23.0,-48439.627699807614,-18999.720394578027,-187500.02235174447,-68421.41669051847,-72331.6755690188,-48989.07828200797,-38697.17284407292,-65229.16289915597,0.012,1.004,0.012,192.0,0.0,0.0,0.0,0.0,0.0,0.0,0.0,0.0,0.0,1769807039.9708633,0.0,-44.0
24.0,-47807.1850904447,-18395.753907651175,-187500.02235174447,-67900.82221040991,-71701.26696840131,-48666.1849816066,-38490.687428794794,-64712.61408479382,0.012,1.004,0.012,192.0,0.0,0.0,0.0,0.0,0.0,0.0,0.0,0.0,0.0,1769807039.9708676,0.0,-44.0
25.0,-47562.79111657037,-18122.816756107422,-187500.02235174447,-67547.12820614914,-71450.70391305732,-48196.82069978961,-37949.529343787355,-64366.27380445884,0.014,1.004,0.012,192.0,0.0,112.0,31.0,96.0,0.0,96.0,0.0,0.0,0.0,1769807039.9708717,0.0,-44.0
26.0,-48142.170684596385,-18673.250815063813,-187500.02235174447,-68024.18148805875,-72038.48773699853,-48461.26418844035,-38098.794293259896,-64831.59242052942,0.014,1.004,0.012,192.0,0.0,0.0,0.0,0.0,0.0,0.0,0.0,0.0,0.0,1769807039.970876,0.0,-44.0
27.0,-48465.44396465349,-19009.197534227078,-187500.02235174447,-68418.26509455027,-72349.04287446057,-48931.70135399119,-38626.317814149596,-65212.689663492405,0.014,1.004,0.012,192.0,0.0,0.0,0.0,0.0,0.0,0.0,0.0,0.0,0.0,1769807039.97088,0.0,-44.0
28.0,-47966.70949062223,-18529.462042982825,-187500.02235174447,-68033.4574620077,-71836.6514845671,-48760.308177507904,-38572.89714490141,-64833.0005804301,0.014,1.004,0.012,192.0,0.0,0.0,0.0,0.0,0.0,0.0,0.0,0.0,0.0,1769807039.970884,0.0,-44.0
29.0,-47563.64048285967,-18121.453299695648,-187500.02235174447,-67573.5479680953,-71441.62910480847,-48259.85261915358,-38029.637995915175,-64390.43604021503,0.014,1.004,0.012,192.0,0.0,0.0,0.0,0.0,0.0,0.0,0.0,0.0,0.0,1769807039.9708881,0.0,-44.0
30.0,-48037.96685194574,-18576.803037739162,-187500.02235174447,-67925.00679791055,-71923.04097688687,-48393.560754485225,-38029.727402893,-64737.49157637258,0.014,1.004,0.012,192.0,0.0,0.0,0.0,0.0,0.0,0.0,0.0,0.0,0.0,1769807039.9708922,0.0,-44.0
31.0,-48470.741328089396,-19028.464737947554,-187500.02235174447,-68418.51096373927,-72361.7833688001,-48908.947278135696,-38561.20718255129,-65211.013282658256,0.014,1.004,0.012,192.0,0.0,0.0,0.0,0.0,0.0,0.0,0.0,0.0,0.0,1769807039.9708965,0.0,-44.0
32.0,-48070.019253494655,-18644.39471297201,-187500.02235174447,-68133.79444286757,-71935.04386365938,-48844.59660584886,-38617.95826172332,-64931.34825603345,0.014,1.004,0.012,192.0,0.0,0.0,0.0,0.0,0.0,0.0,0.0,0.0,0.0,1769807039.9709003,0.0,-44.0
33.0,-47525.26253762991,-18093.11128772632,-187500.02235174447,-67560.18162491103,-71384.92272912535,-48288.46285205637,-38065.28902832139,-64371.57116789475,0.014,1.004,0.012,192.0,0.0,0.0,0.0,0.0,0.0,0.0,0.0,0.0,0.0,1769807039.9709067,0.0,-44.0
34.0,-47926.31988839149,-18481.830475548562,-187500.02235174447,-67829.18486943065,-71801.2910248388,-48317.22954717035,-37960.995788692926,-64637.266354234984,0.014,1.004,0.012,192.0,0.0,0.0,0.0,0.0,0.0,0.0,0.0,0.0,0.0,1769807039.9709113,0.0,-44.0
35.0,-48500.312686003774,-19039.975886342036,-187500.02235174447,-68413.12419332555,-72373.40627591686,-48874.70440563016,-38499.918699254835,-65207.68287273442,0.012,1.006,0.012,192.0,0.0,96.0,31.0,112.0,0.0,96.0,0.0,0.0,0.0,1769807039.9709153,0.0,-44.0
36.0,-48233.36580197404,-18791.71506067694,-187500.02235174447,-68275.10217131402,-72101.81022904042,-48948.46516233268,-38696.32347778362,-65072.45481877981,0.012,1.006,0.012,192.0,0.0,0.0,0.0,0.0,0.0,0.0,0.0,0.0,0.0,1769807039.9709196,0.0,-44.0
37.0,-47564.24397995997,-18149.43768375369,-187500.02235174447,-67633.18242230207,-71446.52413684418,-48406.68122848049,-38190.6152594823,-64451.94804095603,0.012,1.006,0.012,192.0,0.0,0.0,0.0,0.0,0.0,0.0,0.0,0.0,0.0,1769807039.970924,0.0,-44.0
38.0,-47798.40085487376,-18355.38665716489,-187500.02235174447,-67714.31925467483,-71681.50802630282,-48264.83705816711,-37913.14070381412,-64532.63783843969,0.012,1.006,0.012,192.0,0.0,0.0,0.0,0.0,0.0,0.0,0.0,0.0,0.0,1769807039.970928,0.0,-44.0
39.0,-48423.80266473325,-18975.80402801085,-187500.02235174447,-68303.15361060544,-72290.63776619885,-48761.17989554166,-38366.2552674121,-65100.88623772696,0.012,1.006,0.012,192.0,0.0,0.0,0.0,0.0,0.0,0.0,0.0,0.0,0.0,1769807039.970932,0.0,-44.0
40.0,-48305.91956447597,-18887.760506601397,-187500.02235174447,-68312.2284188543,-72168.15020658377,-48952.93551122374,-38676.78805312968,-65104.73073777327,0.012,1.006,0.012,192.0,0.0,0.0,0.0,0.0,0.0,0.0,0.0,0.0,0.0,1769807039.970938,0.0,-44.0
41.0,-47631.50037902599,-18211.642588572813,-187500.02235174447,-67698.36010913373,-71498.91662584741,-48477.513906659355,-38277.16121401325,-64506.754518360445,0.012,1.006,0.012,192.0,0.0,0.0,0.0,0.0,0.0,0.0,0.0,0.0,0.0,1769807039.9709427,0.0,-44.0
42.0,-47681.52358311696,-18237.99529528562,-187500.02235174447,-67613.84816334822,-71561.8367864891,-48190.71867355331,-37877.15439524107,-64427.249363332914,0.012,1.006,0.012,192.0,0.0,0.0,0.0,0.0,0.0,0.0,0.0,0.0,0.0,1769807039.970947,0.0,-44.0
43.0,-48332.49578863332,-18899.40576546261,-187500.02235174447,-68226.37536840145,-72230.37746314735,-48663.145144360686,-38267.617019130834,-65020.97875129923,0.012,1.006,0.012,192.0,0.0,0.0,0.0,0.0,0.0,0.0,0.0,0.0,0.0,1769807039.9709513,0.0,-44.0
44.0,-48378.607437444625,-18959.12962664719,-187500.02235174447,-68383.93281506692,-72264.17330076377,-48988.72065409669,-38686.22048928982,-65176.50218921926,0.012,1.006,0.012,192.0,0.0,0.0,0.0,0.0,0.0,0.0,0.0,0.0,0.0,1769807039.9709551,0.0,-44.0
45.0,-47737.246482044044,-18335.270087155117,-187500.02235174447,-67822.72521528306,-71610.27301672376,-48606.796396588856,-38404.856730086416,-64633.51126116649,0.006,1.006,0.012,192.0,0.0,48.0,31.0,112.0,0.0,96.0,0.0,0.0,0.0,1769807039.9709592,0.0,-44.0
46.0,-47615.407123018165,-18170.78359970851,-187500.02235174447,-67568.13884593712,-71482.75631460623,-48197.11127246753,-37899.84141586321,-64390.480743703934,0.006,1.006,0.012,192.0,0.0,0.0,0.0,0.0,0.0,0.0,0.0,0.0,0.0,1769807039.9709635,0.0,-44.0
47.0,-48257.863313897054,-18771.19615926697,-187500.02235174447,-68114.63899786938,-72116.85295305884,-48555.00740468591,-38155.970055576574,-64918.25013378265,0.006,1.006,0.012,192.0,0.0,0.0,0.0,0.0,0.0,0.0,0.0,0.0,0.0,1769807039.9709687,0.0,-44.0
48.0,-48440.052382952264,-18990.08679271779,-187500.02235174447,-68410.24081829081,-72306.08282161747,-48967.240627675135,-38645.964997525814,-65204.48657327731,0.006,1.006,0.012,192.0,0.0,0.0,0.0,0.0,0.0,0.0,0.0,0.0,0.0,1769807039.970973,0.0,-44.0
49.0,-47831.637898878806,-18421.79368994161,-187500.02235174447,-67924.06802464343,-71703.81506726921,-48696.91863023265,-38483.5348705691,-64734.40703563774,0.006,1.006,0.012,192.0,0.0,0.0,0.0,0.0,0.0,0.0,0.0,0.0,0.0,1769807039.9709773,0.0,-44.0
50.0,-47520.747485249936,-18088.86445627981,-187500.02235174447,-67515.6345982116,-71393.3046332961,-48194.78669104418,-37908.715058411966,-64339.20584192346,0.006,1.006,0.012,192.0,0.0,0.0,0.0,0.0,0.0,0.0,0.0,0.0,0.0,1769807039.9709811,0.0,-44.0
51.0,-48121.964707608786,-18659.63860269053,-187500.02235174447,-67991.81616208746,-71989.0456782634,-48443.74042078739,-38043.76429841093,-64797.707175935175,0.006,1.006,0.012,192.0,0.0,0.0,0.0,0.0,0.0,0.0,0.0,0.0,0.0,1769807039.9709852,0.0,-44.0
52.0,-48465.93570303151,-19023.167374511646,-187500.02235174447,-68419.62855096204,-72338.2246301442,-48947.43698208773,-38595.02537191217,-65213.62843675953,0.006,1.006,0.012,192.0,0.0,0.0,0.0,0.0,0.0,0.0,0.0,0.0,0.0,1769807039.9709914,0.0,-44.0
53.0,-47959.847505074446,-18538.313333787126,-187500.02235174447,-68039.9618196442,-71837.59025783424,-48786.57147724289,-38565.72223493126,-64844.914060224786,0.006,1.006,0.012,192.0,0.0,0.0,0.0,0.0,0.0,0.0,0.0,0.0,0.0,1769807039.9709961,0.0,-44.0
54.0,-47498.61925823918,-18073.15117992773,-187500.02235174447,-67532.82308969773,-71399.2501973212,-48242.64177592299,-37999.53019613388,-64354.65089734208,0.006,1.006,0.012,192.0,0.0,0.0,0.0,0.0,0.0,0.0,0.0,0.0,0.0,1769807039.9710004,0.0,-44.0
55.0,-47980.947551840254,-18536.011104108227,-187500.02235174447,-67887.58997769236,-71884.59597642375,-48359.87667559108,-37986.20855643851,-64693.682157240175,0.008,1.006,0.012,192.0,0.0,64.0,31.0,112.0,0.0,96.0,0.0,0.0,0.0,1769807039.9710047,0.0,-44.0
56.0,-48457.956130260965,-19021.356883210767,-187500.02235174447,-68393.25349250478,-72343.09731043546,-48891.736434905106,-38523.25392046618,-65185.778163168216,0.008,1.006,0.012,192.0,0.0,0.0,0.0,0.0,0.0,0.0,0.0,0.0,0.0,1769807039.971009,0.0,-44.0
57.0,-48085.21843972426,-18672.692021452433,-187500.02235174447,-68142.35516099396,-71955.62982030271,-48855.34779493187,-38612.50443607622,-64938.83609042598,0.008,1.006,0.012,192.0,0.0,0.0,0.0,0.0,0.0,0.0,0.0,0.0,0.0,1769807039.9710133,0.0,-44.0
58.0,-47526.69304927505,-18101.649654108245,-187500.02235174447,-67556.40418009808,-71387.2026070598,-48299.66107602848,-38070.09465337928,-64371.77233359485,0.008,1.006,0.012,192.0,0.0,0.0,0.0,0.0,0.0,0.0,0.0,0.0,0.0,1769807039.9710171,0.0,-44.0
59.0,-47873.68153019924,-18421.726634708244,-187500.02235174447,-67763.60485119878,-71740.91896306502,-48272.481354770825,-37904.66939266556,-64574.16737963765,0.008,1.006,0.012,192.0,0.0,0.0,0.0,0.0,0.0,0.0,0.0,0.0,0.0,1769807039.9710214,0.0,-44.0
60.0,-48449.26130166785,-19015.411319185652,-187500.02235174447,-68352.86389027403,-72320.43264155778,-48817.12631191329,-38432.84111414446,-65146.86377607153,0.008,1.006,0.012,192.0,0.0,0.0,0.0,0.0,0.0,0.0,0.0,0.0,0.0,1769807039.9710264,0.0,-44.0
61.0,-48190.49515610876,-18789.189313553492,-187500.02235174447,-68227.35884515749,-72056.79381570742,-48901.951182121185,-38640.48882013426,-65028.46658569176,0.008,1.006,0.012,192.0,0.0,0.0,0.0,0.0,0.0,0.0,0.0,0.0,0.0,1769807039.971031,0.0,-44.0
62.0,-47517.84175847075,-18115.574790903902,-187500.02235174447,-67590.73645958143,-71397.37265078696,-48358.62497790158,-38144.19068624863,-64409.34561602421,0.008,1.006,0.012,192.0,0.0,0.0,0.0,0.0,0.0,0.0,0.0,0.0,0.0,1769807039.9710352,0.0,-44.0
63.0,-47735.100714576336,-18289.67252846629,-187500.02235174447,-67652.96371614501,-71608.90956031198,-48199.97229575781,-37851.71811005093,-64469.94119524255,0.008,1.006,0.012,192.0,0.0,0.0,0.0,0.0,0.0,0.0,0.0,0.0,0.0,1769807039.9710393,0.0,-44.0
64.0,-48381.33435026817,-18921.623399451186,-187500.02235174447,-68260.7076478848,-72246.4036639218,-48707.938040249115,-38313.81807491995,-65064.31878379808,0.008,1.006,0.012,192.0,0.0,0.0,0.0,0.0,0.0,0.0,0.0,0.0,0.0,1769807039.9710455,0.0,-44.0
65.0,-48251.850694638575,-18835.01038968687,-187500.02235174447,-68268.57546193308,-72122.50794440602,-48902.95701062167,-38623.1662181814,-65069.48203676725,0.008,1.006,0.012,192.0,0.0,0.0,0.0,0.0,0.0,0.0,0.0,0.0,0.0,1769807039.9710505,0.0,-44.0
66.0,-47593.32359949632,-18190.251969129084,-187500.02235174447,-67664.02782965038,-71458.39291314995,-48447.1378859446,-38241.130201951295,-64476.15498020113,0.014,1.004,0.01,192.0,0.0,112.0,31.0,96.0,0.0,80.0,0.0,0.0,0.0,1769807039.9710543,0.0,-44.0
67.0,-47679.221353438064,-18226.148870724308,-187500.02235174447,-67589.21654095847,-71533.1818500974,-48177.329978624584,-37862.02226424483,-64408.18332531254,0.014,1.004,0.01,192.0,0.0,0.0,0.0,0.0,0.0,0.0,0.0,0.0,0.0,1769807039.9710584,0.0,-44.0
68.0,-48346.24211147334,-18865.02878249035,-187500.02235174447,-68202.1460774119,-72208.62921579233,-48641.37454526121,-38246.09228922037,-65001.689195834304,0.014,1.004,0.01,192.0,0.0,0.0,0.0,0.0,0.0,0.0,0.0,0.0,0.0,1769807039.9710627,0.0,-44.0
69.0,-48380.6190944456,-18904.434907965053,-187500.02235174447,-68355.07671297512,-72238.13351847333,-48956.10945893639,-38651.86585806202,-65149.09895051706,0.014,1.004,0.01,192.0,0.0,0.0,0.0,0.0,0.0,0.0,0.0,0.0,0.0,1769807039.9710667,0.0,-44.0
70.0,-47708.27862122996,-18283.212874318706,-187500.02235174447,-67781.77681944094,-71573.66085930596,-48573.17937292807,-38362.343712132424,-64591.042946701404,0.014,1.004,0.01,192.0,0.0,0.0,0.0,0.0,0.0,0.0,0.0,0.0,0.0,1769807039.9710724,0.0,-44.0
71.0,-47591.11077679524,-18164.45805602766,-187500.02235174447,-67543.35076133619,-71467.870052799,-48188.796423530155,-37879.5907353867,-64363.993926524396,0.014,1.004,0.01,192.0,0.0,0.0,0.0,0.0,0.0,0.0,0.0,0.0,0.0,1769807039.9710772,0.0,-44.0
72.0,-48217.87604306651,-18778.52753144831,-187500.02235174447,-68086.74402078915,-72109.94626402215,-48553.152209896114,-38134.4006221772,-64896.278368983076,0.014,1.004,0.01,192.0,0.0,0.0,0.0,0.0,0.0,0.0,0.0,0.0,0.0,1769807039.9710813,0.0,-44.0
73.0,-48400.08746386617,-18983.42597287011,-187500.02235174447,-68377.80843708616,-72298.52793199157,-48961.02684271656,-38611.90093897592,-65175.496360718775,0.014,1.004,0.01,192.0,0.0,0.0,0.0,0.0,0.0,0.0,0.0,0.0,0.0,1769807039.9710853,0.0,-44.0
74.0,-47827.34636394338,-18412.83064041503,-187500.02235174447,-67908.98059713609,-71709.87239001661,-48688.26850512845,-38463.37359707041,-64711.89882897125,0.014,1.004,0.01,192.0,0.0,0.0,0.0,0.0,0.0,0.0,0.0,0.0,0.0,1769807039.9710891,0.0,-44.0
75.0,-47505.63770599815,-18087.500999868036,-187500.02235174447,-67494.15457179006,-71392.34350828451,-48187.880002007485,-37900.62372691915,-64314.17188813352,0.014,1.004,0.01,192.0,0.0,0.0,0.0,0.0,0.0,0.0,0.0,0.0,0.0,1769807039.9710934,0.0,-44.0
76.0,-48068.25346568268,-18630.670741876453,-187500.02235174447,-67945.52569932053,-71963.31882039533,-48413.140882628075,-38007.487417159966,-64751.90845154625,0.018000000000000002,1.004,0.008,192.0,0.0,144.0,31.0,96.0,0.0,64.0,0.0,0.0,0.0,1769807039.9710977,0.0,-44.0
77.0,-48432.34103111518,-18988.008080483447,-187500.02235174447,-68372.39931492798,-72313.23537984317,-48910.62365896984,-38540.21889450776,-65165.080447802604,0.018000000000000002,1.004,0.008,192.0,0.0,0.0,0.0,0.0,0.0,0.0,0.0,0.0,0.0,1769807039.9711015,0.0,-44.0
78.0,-47940.15561820932,-18529.797319149653,-187500.02235174447,-68008.91524659577,-71817.47368782446,-48769.5617997124,-38517.10719074097,-64803.786850427015,0.018000000000000002,1.004,0.008,192.0,0.0,0.0,0.0,0.0,0.0,0.0,0.0,0.0,0.0,1769807039.9711056,0.0,-44.0
79.0,-47470.09843231421,-18060.790665243945,-187500.02235174447,-67483.55984491824,-71348.35527519647,-48218.725409355815,-37941.86269543919,-64292.825972178696,0.018000000000000002,1.004,0.008,192.0,0.0,0.0,0.0,0.0,0.0,0.0,0.0,0.0,0.0,1769807039.9711096,0.0,-44.0
80.0,-47950.057441003024,-18502.483487425267,-187500.02235174447,-67819.88654373724,-71821.58640880423,-48322.906890262,-37912.93953811402,-64622.55890638339,0.018000000000000002,1.004,0.008,192.0,0.0,0.0,0.0,0.0,0.0,0.0,0.0,0.0,0.0,1769807039.9711137,0.0,-44.0
81.0,-48417.83474896369,-18968.31619361832,-187500.02235174447,-68337.75411102225,-72295.30928079001,-48850.05043149596,-38451.08013761999,-65125.0708252276,0.018000000000000002,1.004,0.008,192.0,0.0,0.0,0.0,0.0,0.0,0.0,0.0,0.0,0.0,1769807039.971118,0.0,-44.0
82.0,-48004.75215968516,-18595.6902618039,-187500.02235174447,-68064.34757284494,-71882.62902291167,-48793.433462790665,-38518.62710936393,-64854.57001382948,0.018000000000000002,1.004,0.008,192.0,0.0,0.0,0.0,0.0,0.0,0.0,0.0,0.0,0.0,1769807039.971122,0.0,-44.0
83.0,-47450.67476638255,-18036.829595187857,-187500.02235174447,-67491.56176943323,-71323.74600455118,-48258.06447959715,-37999.91017578962,-64297.162210603026,0.018000000000000002,1.004,0.008,192.0,0.0,0.0,0.0,0.0,0.0,0.0,0.0,0.0,0.0,1769807039.9711263,0.0,-44.0
84.0,-47810.515500368536,-18344.90368901535,-187500.02235174447,-67700.14824869017,-71682.69266875896,-48230.61653740604,-37840.318720378724,-64505.88280032668,0.018000000000000002,1.004,0.008,192.0,0.0,0.0,0.0,0.0,0.0,0.0,0.0,0.0,0.0,1769807039.9711306,0.0,-44.0
85.0,-48409.05051339275,-18953.094655644258,-187500.02235174447,-68303.93592166137,-72287.2626527861,-48778.547200983434,-38372.1561279483,-65096.72881325827,0.018000000000000002,1.004,0.008,192.0,0.0,0.0,0.0,0.0,0.0,0.0,0.0,0.0,0.0,1769807039.971135,0.0,-44.0
86.0,-48178.29110363616,-18774.32540349071,-187500.02235174447,-68219.4016241314,-72069.98134493607,-48913.73055144913,-38622.36155538101,-65022.25280073319,0.018000000000000002,1.008,0.008,192.0,0.0,144.0,31.0,128.0,0.0,64.0,0.0,0.0,0.0,1769807039.9711387,0.0,-44.0
87.0,-47488.382159278655,-18086.115191711808,-187500.02235174447,-67557.41000859857,-71379.53595871163,-48368.97383558439,-38127.91861628516,-64383.842275600706,0.018000000000000002,1.008,0.008,192.0,0.0,0.0,0.0,0.0,0.0,0.0,0.0,0.0,0.0,1769807039.9711428,0.0,-44.0
88.0,-47656.37787060474,-18228.31698993647,-187500.02235174447,-67571.2457384164,-71545.20708861436,-48155.76054522521,-37790.9213651325,-64394.83933387272,0.018000000000000002,1.008,0.008,192.0,0.0,0.0,0.0,0.0,0.0,0.0,0.0,0.0,0.0,1769807039.9711473,0.0,-44.0
89.0,-48314.12265469106,-18859.798474287807,-187500.02235174447,-68175.21222534326,-72186.05395389246,-48651.11990584373,-38232.68124254719,-64984.925387492825,0.018000000000000002,1.008,0.008,192.0,0.0,0.0,0.0,0.0,0.0,0.0,0.0,0.0,0.0,1769807039.971151,0.0,-44.0
90.0,-48234.21516826334,-18813.664473732053,-187500.02235174447,-68219.33456889803,-72106.45939188713,-48882.90749584526,-38579.44620602682,-65033.0486933051,0.018000000000000002,1.008,0.008,192.0,0.0,0.0,0.0,0.0,0.0,0.0,0.0,0.0,0.0,1769807039.9711552,0.0,-44.0
91.0,-47568.5802183843,-18170.560082263957,-187500.02235174447,-67629.27086702238,-71450.45804386832,-48447.83079002271,-38226.8250854999,-64457.04423869184,0.018000000000000002,1.008,0.008,192.0,0.0,0.0,0.0,0.0,0.0,0.0,0.0,0.0,0.0,1769807039.9711592,0.0,-44.0
92.0,-47585.8804685927,-18155.852634412364,-187500.02235174447,-67510.1807725645,-71470.50755864472,-48149.94909166683,-37808.84746418565,-64345.44197862649,0.018000000000000002,1.008,0.008,192.0,0.0,0.0,0.0,0.0,0.0,0.0,0.0,0.0,0.0,1769807039.9711635,0.0,-44.0
93.0,-48232.24821475127,-18766.94932782046,-187500.02235174447,-68087.7722010341,-72112.44965940114,-48566.160925169104,-38145.64354963822,-64905.75550863213,0.018000000000000002,1.008,0.008,192.0,0.0,0.0,0.0,0.0,0.0,0.0,0.0,0.0,0.0,1769807039.9711673,0.0,-44.0
94.0,-48310.0546372002,-18858.54677659831,-187500.02235174447,-68277.58321494857,-72180.62247998983,-48900.45361524267,-38572.45011001231,-65085.172961374876,0.018000000000000002,1.008,0.008,192.0,0.0,0.0,0.0,0.0,0.0,0.0,0.0,0.0,0.0,1769807039.9711716,0.0,-44.0
95.0,-47677.92495225966,-18274.450990492223,-187500.02235174447,-67746.10343529028,-71545.02827465872,-48564.4621925905,-38328.547874516,-64563.505597532465,0.018000000000000002,1.008,0.008,192.0,0.0,0.0,0.0,0.0,0.0,0.0,0.0,0.0,0.0,1769807039.9711757,0.0,-44.0
96.0,-47498.39574079463,-18070.357211870814,-187500.02235174447,-67456.67069633851,-71374.81974063156,-48140.04726887313,-37812.91548167652,-64282.119486584605,0.014,1.004,0.014,192.0,0.0,112.0,31.0,96.0,0.0,112.0,0.0,0.0,0.0,1769807039.9711797,0.0,-44.0
97.0,-48119.7071814188,-18656.822282889163,-187500.02235174447,-67986.31763295145,-72008.87167559525,-48465.37690942013,-38042.579655954796,-64799.98705386962,0.014,1.004,0.014,192.0,0.0,0.0,0.0,0.0,0.0,0.0,0.0,0.0,0.0,1769807039.9711838,0.0,-44.0
98.0,-48368.68326290647,-18935.973219391493,-187500.02235174447,-68333.61903829801,-72255.54552740401,-48915.719856705655,-38562.637694196426,-65135.33027593259,0.014,1.004,0.014,192.0,0.0,0.0,0.0,0.0,0.0,0.0,0.0,0.0,0.0,1769807039.971188,0.0,-44.0
99.0,-47794.55635482745,-18396.31270126256,-187500.02235174447,-67879.23042526608,-71672.5673285207,-48672.6893392431,-38437.04324210206,-64688.027165892985,0.014,1.004,0.014,192.0,0.0,0.0,0.0,0.0,0.0,0.0,0.0,0.0,0.0,1769807039.971192,0.0,-44.0
100.0,-47452.28409198333,-18036.494319021025,-187500.02235174447,-67446.1653764445,-71328.39516739789,-48157.10164989253,-37864.72682532392,-64265.57919568768,0.014,1.004,0.014,192.0,0.0,0.0,0.0,0.0,0.0,0.0,0.0,0.0,0.0,1769807039.9711962,0.0,-44.0
101.0,-47988.83771763298,-18548.57278449211,-187500.02235174447,-67867.98749780506,-71874.47063618549,-48366.04575706074,-37945.08134664075,-64677.45479076562,0.014,1.004,0.014,192.0,0.0,0.0,0.0,0.0,0.0,0.0,0.0,0.0,0.0,1769807039.9712002,0.0,-44.0
102.0,-48361.91068433651,-18938.342504303757,-187500.02235174447,-68310.48498278677,-72252.43863492474,-48862.94738804667,-38484.63010604741,-65108.6199413085,0.014,1.004,0.014,192.0,0.0,0.0,0.0,0.0,0.0,0.0,0.0,0.0,0.0,1769807039.9712043,0.0,-44.0
103.0,-47896.167385121276,-18480.109391225506,-187500.02235174447,-67956.09807444789,-71766.06467557725,-48728.21107247008,-38476.24820187667,-64763.33019296291,0.014,1.004,0.014,192.0,0.0,0.0,0.0,0.0,0.0,0.0,0.0,0.0,0.0,1769807039.9712083,0.0,-44.0
104.0,-47408.3405623842,-17996.216475512563,-187500.02235174447,-67427.88164948007,-71289.14550413436,-48181.35329262654,-37910.994936346404,-64247.608393145616,0.014,1.004,0.014,192.0,0.0,0.0,0.0,0.0,0.0,0.0,0.0,0.0,0.0,1769807039.9712126,0.0,-44.0
105.0,-47880.52116400256,-18447.87817572095,-187500.02235174447,-67763.20251979858,-71766.82463488873,-48280.237410096815,-37880.037770275805,-64578.70478376208,0.014,1.004,0.014,192.0,0.0,0.0,0.0,0.0,0.0,0.0,0.0,0.0,0.0,1769807040.451007,0.0,-44.0
106.0,-48404.401350546046,-18960.76130399243,-187500.02235174447,-68313.70363398833,-72278.2548997706,-48829.799751019455,-38434.11516357841,-65115.14665068944,0.014,1.004,0.014,192.0,0.0,112.0,31.0,96.0,0.0,112.0,0.0,0.0,0.0,1769807040.4510348,0.0,-44.0
107.0,-48020.97952615971,-18594.885599003508,-187500.02235174447,-68076.59632880644,-71899.34812776424,-48820.09909392585,-38542.990510820215,-64884.34253744395,0.014,1.004,0.014,192.0,0.0,0.0,0.0,0.0,0.0,0.0,0.0,0.0,0.0,1769807040.45105,0.0,-44.0
108.0,-47436.079077253235,-18007.101775062296,-187500.02235174447,-67472.78630409078,-71305.05994618653,-48265.37350003404,-38012.36009745122,-64297.43043153649,0.014,1.004,0.014,192.0,0.0,0.0,0.0,0.0,0.0,0.0,0.0,0.0,0.0,1769807040.451062,0.0,-44.0
109.0,-47764.582665512884,-18308.58210427548,-187500.02235174447,-67663.35727731673,-71647.3098572862,-48221.027639034706,-37839.80463025625,-64485.05097449434,0.014,1.004,0.014,192.0,0.0,0.0,0.0,0.0,0.0,0.0,0.0,0.0,0.0,1769807040.4510727,0.0,-44.0
110.0,-48353.2605592323,-18902.80323061982,-187500.02235174447,-68256.9078513274,-72240.59221036342,-48755.99429082803,-38340.662520010774,-65059.870786651474,0.014,1.004,0.014,192.0,0.0,0.0,0.0,0.0,0.0,0.0,0.0,0.0,0.0,1769807040.4510856,0.0,-44.0
111.0,-48136.515693249195,-18738.94259201796,-187500.02235174447,-68174.18404509831,-72018.21470477757,-48880.44880395518,-38579.31209556009,-64980.1868176683,0.014,1.004,0.014,192.0,0.0,0.0,0.0,0.0,0.0,0.0,0.0,0.0,0.0,1769807040.4510963,0.0,-44.0
112.0,-47479.419109752074,-18098.453354651137,-187500.02235174447,-67557.9464504655,-71365.45435970477,-48378.02629208878,-38131.49489539801,-64381.85297034419,0.014,1.004,0.014,192.0,0.0,0.0,0.0,0.0,0.0,0.0,0.0,0.0,0.0,1769807040.4511113,0.0,-44.0
113.0,-47654.5003240705,-18237.771777841066,-187500.02235174447,-67582.6004245997,-71544.04479790268,-48190.45045261985,-37813.563682265725,-64408.093918334715,0.014,1.004,0.014,192.0,0.0,0.0,0.0,0.0,0.0,0.0,0.0,0.0,0.0,1769807040.4511175,0.0,-44.0
114.0,-48308.86999474406,-18869.29796568131,-187500.02235174447,-68193.02656567414,-72197.90037845378,-48688.80494699538,-38254.76476606903,-65006.025434258634,0.014,1.004,0.014,192.0,0.0,0.0,0.0,0.0,0.0,0.0,0.0,0.0,0.0,1769807040.4511216,0.0,-44.0
115.0,-48233.186988018395,-18813.15038360958,-187500.02235174447,-68237.32772318456,-72114.4166129132,-48920.10079861889,-38590.599726510016,-65048.270231279166,0.014,1.004,0.014,192.0,0.0,0.0,0.0,0.0,0.0,0.0,0.0,0.0,0.0,1769807040.4511256,0.0,-44.0
116.0,-47548.6201105857,-18147.090750585885,-187500.02235174447,-67625.00168383142,-71426.42991857885,-48468.21558096595,-38220.343079607854,-64446.85184322022,0.01,1.008,0.016,192.0,0.0,80.0,31.0,128.0,0.0,128.0,0.0,0.0,0.0,1769807040.4511297,0.0,-44.0
117.0,-47533.823255756295,-18101.135563985776,-187500.02235174447,-67481.7270018729,-71428.44157557984,-48140.203731084315,-37781.108949316615,-64309.679187498,0.01,1.008,0.016,192.0,0.0,0.0,0.0,0.0,0.0,0.0,0.0,0.0,0.0,1769807040.4511335,0.0,-44.0
118.0,-48198.74294981277,-18744.5752316207,-187500.02235174447,-68083.72653528769,-72106.54879886494,-48581.270704420895,-38134.17710473265,-64897.2171422502,0.01,1.008,0.016,192.0,0.0,0.0,0.0,0.0,0.0,0.0,0.0,0.0,0.0,1769807040.4511375,0.0,-44.0
119.0,-48289.60279102359,-18868.64976509211,-187500.02235174447,-68284.04286909616,-72193.31827084045,-48938.13865639432,-38572.58422047904,-65095.14183940195,0.01,1.008,0.016,192.0,0.0,0.0,0.0,0.0,0.0,0.0,0.0,0.0,0.0,1769807040.4511414,0.0,-44.0
120.0,-47651.1475624022,-18274.42863874777,-187500.02235174447,-67735.32989446282,-71539.641504245,-48583.12589921068,-38323.31756631345,-64559.25876608596,0.01,1.008,0.016,192.0,0.0,0.0,0.0,0.0,0.0,0.0,0.0,0.0,0.0,1769807040.4511454,0.0,-44.0
121.0,-47463.19174327752,-18066.602118802326,-187500.02235174447,-67441.56091708671,-71360.46992069125,-48145.746963709236,-37806.38877229557,-64271.7706289018,0.01,1.008,0.016,192.0,0.0,0.0,0.0,0.0,0.0,0.0,0.0,0.0,0.0,1769807040.4511492,0.0,-44.0
122.0,-48094.89674507341,-18649.088579307627,-187500.02235174447,-67958.55676633796,-71979.32266942534,-48463.96874951944,-38013.075353273794,-64775.66835590224,0.01,1.008,0.016,192.0,0.0,0.0,0.0,0.0,0.0,0.0,0.0,0.0,0.0,1769807040.451153,0.0,-44.0
123.0,-48349.25959697481,-18923.098614585237,-187500.02235174447,-68305.61230249552,-72229.63985558032,-48912.434150270725,-38524.37150768894,-65111.883295998974,0.01,1.008,0.016,192.0,0.0,0.0,0.0,0.0,0.0,0.0,0.0,0.0,0.0,1769807040.4511569,0.0,-44.0
124.0,-47777.54667729696,-18380.644128399388,-187500.02235174447,-67852.07305575289,-71651.89196489954,-48674.76805147744,-38398.2629654721,-64664.3119650259,0.01,1.008,0.016,192.0,0.0,0.0,0.0,0.0,0.0,0.0,0.0,0.0,0.0,1769807040.451161,0.0,-44.0
125.0,-47425.55140561479,-18010.879219875245,-187500.02235174447,-67409.62027426009,-71295.40399258185,-48165.57296104109,-37837.681214533,-64235.69491335093,0.01,1.008,0.016,192.0,0.0,0.0,0.0,0.0,0.0,0.0,0.0,0.0,0.0,1769807040.4511645,0.0,-44.0
126.0,-47948.7163363357,-18511.133612529473,-187500.02235174447,-67810.69997676612,-71825.00622570589,-48338.910739292,-37890.00664830287,-64627.40923493019,0.012,1.01,0.014,192.0,0.0,96.0,31.0,144.0,0.0,112.0,0.0,0.0,0.0,1769807040.4511683,0.0,-44.0
127.0,-48350.44423943094,-18910.15695454561,-187500.02235174447,-68274.23045328027,-72226.30944565647,-48847.278815183505,-38430.89651237685,-65077.70747872681,0.012,1.01,0.014,192.0,0.0,0.0,0.0,0.0,0.0,0.0,0.0,0.0,0.0,1769807040.4511724,0.0,-44.0
128.0,-47903.007018924596,-18471.861597521496,-187500.02235174447,-67953.4829203466,-71773.21723380295,-48745.57837791186,-38458.79148945707,-64765.87829183082,0.012,1.01,0.014,192.0,0.0,0.0,0.0,0.0,0.0,0.0,0.0,0.0,0.0,1769807040.4511762,0.0,-44.0
129.0,-47399.019884946334,-17986.6946323746,-187500.02235174447,-67408.2121143594,-71276.8743964284,-48201.33575216958,-37902.903604853585,-64236.43252091796,0.012,1.01,0.014,192.0,0.0,0.0,0.0,0.0,0.0,0.0,0.0,0.0,0.0,1769807040.45118,0.0,-44.0
130.0,-47846.524160686036,-18423.4477190313,-187500.02235174447,-67718.65549309916,-71736.20274498496,-48274.001273393784,-37847.44892685997,-64541.95851587755,0.012,1.01,0.014,192.0,0.0,0.0,0.0,0.0,0.0,0.0,0.0,0.0,0.0,1769807040.4511838,0.0,-44.0
131.0,-48340.09538174813,-18919.812908150307,-187500.02235174447,-68243.72032209877,-72235.29484692751,-48790.8183086894,-38371.23970642564,-65058.462626750785,0.012,1.01,0.014,192.0,0.0,0.0,0.0,0.0,0.0,0.0,0.0,0.0,0.0,1769807040.4511876,0.0,-44.0
132.0,-48008.66371496484,-18615.337445180114,-187500.02235174447,-68058.40200881983,-71913.2732645599,-48821.52960557099,-38522.38220243242,-64875.53595012856,0.012,1.01,0.014,192.0,0.0,0.0,0.0,0.0,0.0,0.0,0.0,0.0,0.0,1769807040.4511917,0.0,-44.0
133.0,-47403.154957670566,-17995.814144112366,-187500.02235174447,-67451.44038813596,-71303.00358569666,-48282.29377058671,-38006.48158865948,-64285.11462034162,0.012,1.01,0.014,192.0,0.0,0.0,0.0,0.0,0.0,0.0,0.0,0.0,0.0,1769807040.4511957,0.0,-44.0
134.0,-47711.89960383173,-18270.38297300136,-187500.02235174447,-67605.28744522184,-71602.0475747642,-48204.15207197095,-37791.70367618843,-64434.49132853644,0.012,1.01,0.014,192.0,0.0,0.0,0.0,0.0,0.0,0.0,0.0,0.0,0.0,1769807040.4511995,0.0,-44.0
135.0,-48319.308259404694,-18881.502018153908,-187500.02235174447,-68200.29088262211,-72207.31046286947,-48731.83205507184,-38285.11843503934,-65019.347073954,0.012,1.01,0.014,192.0,0.0,0.0,0.0,0.0,0.0,0.0,0.0,0.0,0.0,1769807040.4512043,0.0,-44.0
136.0,-48120.422437241374,-18716.881420240574,-187500.02235174447,-68140.4329109708,-72007.75408837249,-48881.70050164467,-38546.65619691088,-64962.46188431524,0.008,1.01,0.014,192.0,0.0,64.0,31.0,144.0,0.0,112.0,0.0,0.0,0.0,1769807040.4512084,0.0,-44.0
137.0,-47443.34339420121,-18053.61575527379,-187500.02235174447,-67499.67545267052,-71321.66729231684,-48361.6648151475,-38086.120854153734,-64335.3836936216,0.008,1.01,0.014,192.0,0.0,0.0,0.0,0.0,0.0,0.0,0.0,0.0,0.0,1769807040.4512124,0.0,-44.0
138.0,-47591.37899772871,-18142.285125527993,-187500.02235174447,-67501.35183350467,-71472.25099471223,-48145.70226022032,-37747.67073961148,-64336.993019222384,0.008,1.01,0.014,192.0,0.0,0.0,0.0,0.0,0.0,0.0,0.0,0.0,0.0,1769807040.4512162,0.0,-44.0
139.0,-48254.06351733965,-18792.497371732876,-187500.02235174447,-68124.71963461873,-72137.39420621327,-48637.70885917054,-38176.13132907526,-64941.00420963815,0.008,1.01,0.014,192.0,0.0,0.0,0.0,0.0,0.0,0.0,0.0,0.0,0.0,1769807040.45122,0.0,-44.0
140.0,-48225.140360014484,-18822.314598836256,-187500.02235174447,-68219.13340319793,-72101.38554589577,-48908.38848452431,-38549.74073764572,-65031.52877468214,0.008,1.01,0.014,192.0,0.0,0.0,0.0,0.0,0.0,0.0,0.0,0.0,0.0,1769807040.4512239,0.0,-44.0
141.0,-47551.727003064996,-18176.46094280016,-187500.02235174447,-67622.49828845242,-71424.68648251134,-48479.905543316076,-38209.99422192505,-64449.198776388024,0.008,1.01,0.014,192.0,0.0,0.0,0.0,0.0,0.0,0.0,0.0,0.0,0.0,1769807040.4512277,0.0,-44.0
142.0,-47507.314086832295,-18091.948997014642,-187500.02235174447,-67442.85731826512,-71378.53013021113,-48128.58082396756,-37744.31797794318,-64270.742448656856,0.008,1.01,0.014,192.0,0.0,0.0,0.0,0.0,0.0,0.0,0.0,0.0,0.0,1769807040.4512315,0.0,-44.0
143.0,-48161.460240061315,-18726.112690700615,-187500.02235174447,-68023.48858398064,-72037.99599862052,-48532.36508755268,-38061.37747304171,-64829.69252225072,0.008,1.01,0.014,192.0,0.0,0.0,0.0,0.0,0.0,0.0,0.0,0.0,0.0,1769807040.4512353,0.0,-44.0
144.0,-48293.8496224701,-18883.960710043993,-187500.02235174447,-68273.1128660575,-72172.30763105245,-48913.30586830448,-38533.46866768225,-65068.16328384439,0.008,1.01,0.014,192.0,0.0,0.0,0.0,0.0,0.0,0.0,0.0,0.0,0.0,1769807040.451239,0.0,-44.0
145.0,-47657.562513060875,-18262.202234530716,-187500.02235174447,-67730.74778684948,-71518.85438190155,-48574.632236317666,-38299.53531021301,-64539.879803643205,0.008,1.01,0.014,192.0,0.0,0.0,0.0,0.0,0.0,0.0,0.0,0.0,0.0,1769807040.451243,0.0,-44.0
146.0,-47453.692251884015,-18033.655647475203,-187500.02235174447,-67404.38996605754,-71305.79755375357,-48123.59638495403,-37766.82618460968,-64224.54139286774,0.008,1.01,0.014,192.0,0.0,0.0,0.0,0.0,0.0,0.0,0.0,0.0,0.0,1769807040.4512467,0.0,-44.0
147.0,-48069.90749477238,-18610.330654422123,-187500.02235174447,-67915.7308239616,-71926.25962808843,-48427.49070256838,-37961.062843926295,-64721.644189553765,0.01,1.01,0.008,192.0,0.0,80.0,31.0,144.0,0.0,64.0,0.0,0.0,0.0,1769807040.4512506,0.0,-44.0
148.0,-48350.17601849747,-18912.973274346983,-187500.02235174447,-68291.75422093323,-72215.51355308456,-48899.15721406427,-38490.46391135024,-65088.190446876346,0.01,1.01,0.008,192.0,0.0,0.0,0.0,0.0,0.0,0.0,0.0,0.0,0.0,1769807040.4512544,0.0,-44.0
149.0,-47802.67003806472,-18416.02693987214,-187500.02235174447,-67862.57837564687,-71663.40311329403,-48690.458976085065,-38404.23088124167,-64671.21865406259,0.01,1.01,0.008,192.0,0.0,0.0,0.0,0.0,0.0,0.0,0.0,0.0,0.0,1769807040.4512582,0.0,-44.0
150.0,-47411.60391707467,-18015.193106555118,-187500.02235174447,-67401.97597765637,-71280.2718615856,-48175.34067336806,-37840.85516224565,-64228.005913258305,0.01,1.01,0.008,192.0,0.0,0.0,0.0,0.0,0.0,0.0,0.0,0.0,0.0,1769807040.451262,0.0,-44.0
151.0,-47940.557949609516,-18484.46798139429,-187500.02235174447,-67794.31614808037,-71802.9450539285,-48345.57155913968,-37877.84729931919,-64615.56281036888,0.01,1.01,0.008,192.0,0.0,0.0,0.0,0.0,0.0,0.0,0.0,0.0,0.0,1769807040.451266,0.0,-44.0
152.0,-48361.35189072513,-18906.580675432764,-187500.02235174447,-68262.24991825223,-72215.71471878466,-48852.66558559723,-38415.92084359179,-65071.5607490016,0.01,1.01,0.008,192.0,0.0,0.0,0.0,0.0,0.0,0.0,0.0,0.0,0.0,1769807040.4512715,0.0,-44.0
153.0,-47911.94771670672,-18520.61075217852,-187500.02235174447,-67960.23314717211,-71778.20167281647,-48770.14294506823,-38454.67876847729,-64770.39334421079,0.01,1.01,0.008,192.0,0.0,0.0,0.0,0.0,0.0,0.0,0.0,0.0,0.0,1769807040.451276,0.0,-44.0
154.0,-47395.44360583348,-18003.592551182814,-187500.02235174447,-67415.92346619647,-71280.62948949689,-48226.59322340408,-37914.571215459255,-64240.746407597835,0.01,1.01,0.008,192.0,0.0,0.0,0.0,0.0,0.0,0.0,0.0,0.0,0.0,1769807040.45128,0.0,-44.0
155.0,-47813.82355854793,-18387.48376220271,-187500.02235174447,-67686.80425725035,-71692.43802934147,-48269.687386713915,-37816.71527823392,-64513.48239344149,0.01,1.01,0.008,192.0,0.0,0.0,0.0,0.0,0.0,0.0,0.0,0.0,0.0,1769807040.4512837,0.0,-44.0
156.0,-48343.04581201623,-18901.75269863042,-187500.02235174447,-68225.97303700125,-72203.82359073444,-48790.2148115891,-38321.48472326812,-65041.49765270921,0.01,1.01,0.008,192.0,0.0,0.0,0.0,0.0,0.0,0.0,0.0,0.0,0.0,1769807040.4512875,0.0,-44.0
157.0,-48038.637404279405,-18636.303381479192,-187500.02235174447,-68064.07935191147,-71909.09348834676,-48841.04267848047,-38501.93035625581,-64886.68947061175,0.01,1.006,0.012,192.0,0.0,80.0,31.0,112.0,0.0,96.0,0.0,0.0,0.0,1769807040.4512913,0.0,-44.0
158.0,-47394.348370355176,-18003.749013394,-187500.02235174447,-67430.34034137015,-71268.38073353538,-48287.63583751152,-37979.12305344618,-64271.68122192398,0.01,1.006,0.012,192.0,0.0,0.0,0.0,0.0,0.0,0.0,0.0,0.0,0.0,1769807040.4512954,0.0,-44.0
159.0,-47671.8005742789,-18246.578365156456,-187500.02235174447,-67553.67726727453,-71546.57054502613,-48176.50296407974,-37734.10323072711,-64391.08424080423,0.01,1.006,0.012,192.0,0.0,0.0,0.0,0.0,0.0,0.0,0.0,0.0,0.0,1769807040.4512994,0.0,-44.0
160.0,-48299.32579986165,-18856.758637041883,-187500.02235174447,-68169.51253050716,-72176.04037237649,-48712.564851351366,-38233.79882976995,-64993.106125963466,0.01,1.006,0.012,192.0,0.0,0.0,0.0,0.0,0.0,0.0,0.0,0.0,0.0,1769807040.4513035,0.0,-44.0
161.0,-48142.57301599658,-18728.437272123967,-187500.02235174447,-68134.84497485697,-72009.81044886238,-48879.19710626568,-38515.319051184546,-64959.31028834704,0.01,1.006,0.012,192.0,0.0,0.0,0.0,0.0,0.0,0.0,0.0,0.0,0.0,1769807040.451309,0.0,-44.0
162.0,-47486.99635112243,-18088.462124879614,-187500.02235174447,-67527.50337451737,-71353.51852816564,-48398.165213843014,-38104.493988096,-64364.66447885805,0.01,1.006,0.012,192.0,0.0,0.0,0.0,0.0,0.0,0.0,0.0,0.0,0.0,1769807040.451314,0.0,-44.0
163.0,-47556.59968335625,-18138.865308626333,-187500.02235174447,-67473.63567038008,-71449.16164268991,-48140.494303762236,-37727.151838201506,-64316.4294143235,0.01,1.006,0.012,192.0,0.0,0.0,0.0,0.0,0.0,0.0,0.0,0.0,0.0,1769807040.4513211,0.0,-44.0
164.0,-48227.44258969338,-18798.979377624917,-187500.02235174447,-68079.30088988553,-72110.23683670007,-48613.9266030701,-38131.89722679821,-64907.878924355384,0.01,1.006,0.012,192.0,0.0,0.0,0.0,0.0,0.0,0.0,0.0,0.0,0.0,1769807040.4513257,0.0,-44.0
165.0,-48243.44643872338,-18840.68773277852,-187500.02235174447,-68208.49397283721,-72116.9200082922,-48918.49147301811,-38538.81073460707,-65035.68619915083,0.01,1.006,0.012,192.0,0.0,0.0,0.0,0.0,0.0,0.0,0.0,0.0,0.0,1769807040.45133,0.0,-44.0
166.0,-47558.767802568414,-18194.65526278678,-187500.02235174447,-67620.39722447362,-71440.39975886342,-48504.53716570582,-38220.767762752504,-64463.28037539487,0.01,1.006,0.012,192.0,0.0,0.0,0.0,0.0,0.0,0.0,0.0,0.0,0.0,1769807040.4513347,0.0,-44.0
167.0,-47483.97886562096,-18079.320261397395,-187500.02235174447,-67410.44728880493,-71361.67691489184,-48119.88599537445,-37733.455030137906,-64258.851320606635,0.01,1.004,0.01,192.0,0.0,80.0,31.0,96.0,0.0,80.0,0.0,0.0,0.0,1769807040.4513395,0.0,-44.0
168.0,-48127.46323674479,-18677.967033143883,-187500.02235174447,-67953.75114128008,-71991.30320445338,-48492.914258589066,-38006.61569912621,-64790.26404503156,0.01,1.004,0.01,192.0,0.0,0.0,0.0,0.0,0.0,0.0,0.0,0.0,0.0,1769807040.4513457,0.0,-44.0
169.0,-48266.62519772354,-18835.189203642512,-187500.02235174447,-68199.17329539935,-72130.10753752083,-48875.55377191946,-38467.620428516915,-65029.91944908136,0.01,1.004,0.01,192.0,0.0,0.0,0.0,0.0,0.0,0.0,0.0,0.0,0.0,1769807040.45135,0.0,-44.0
170.0,-47665.20680966459,-18271.411153246303,-187500.02235174447,-67708.50780111644,-71529.56086749565,-48579.102585208726,-38283.553812927465,-64544.73013219001,0.01,1.004,0.01,192.0,0.0,0.0,0.0,0.0,0.0,0.0,0.0,0.0,0.0,1769807040.4513545,0.0,-44.0
171.0,-47427.47365563794,-18015.28251353294,-187500.02235174447,-67371.97993659734,-71295.71691700422,-48129.20667281231,-37756.32086471568,-64218.88640152054,0.01,1.004,0.01,192.0,0.0,0.0,0.0,0.0,0.0,0.0,0.0,0.0,0.0,1769807040.4513595,0.0,-44.0
172.0,-48005.82504341901,-18581.318090119137,-187500.02235174447,-67854.44234066515,-71889.2674910149,-48403.23905983437,-37911.03963983532,-64689.43532579367,0.01,1.004,0.01,192.0,0.0,0.0,0.0,0.0,0.0,0.0,0.0,0.0,0.0,1769807040.451365,0.0,-44.0
173.0,-48306.27719238725,-18867.040439491324,-187500.02235174447,-68228.34232191353,-72182.14239861279,-48868.71413811614,-38426.78379139707,-65057.50150173921,0.01,1.004,0.01,192.0,0.0,0.0,0.0,0.0,0.0,0.0,0.0,0.0,0.0,1769807040.4513705,0.0,-44.0
174.0,-47763.28626433448,-18360.214633967236,-187500.02235174447,-67802.22866561756,-71624.57813317515,-48657.19958033557,-38335.007528663584,-64635.47821467856,0.01,1.004,0.01,192.0,0.0,0.0,0.0,0.0,0.0,0.0,0.0,0.0,0.0,1769807040.4513748,0.0,-44.0
175.0,-47375.03646314579,-17998.049318557896,-187500.02235174447,-67343.83909032811,-71237.51297444261,-48136.918024649385,-37782.07007432819,-64185.291729604214,0.01,1.004,0.01,192.0,0.0,0.0,0.0,0.0,0.0,0.0,0.0,0.0,0.0,1769807040.4513793,0.0,-44.0
176.0,-47893.23930659763,-18491.37467043098,-187500.02235174447,-67748.0927405468,-71772.50197798038,-48313.161529679484,-37828.807571984245,-64582.99631869749,0.01,1.004,0.01,192.0,0.0,0.0,0.0,0.0,0.0,0.0,0.0,0.0,0.0,1769807040.4513843,0.0,-44.0
177.0,-48311.552204078704,-18901.082146296758,-187500.02235174447,-68217.38996713042,-72187.2385963486,-48819.36148635882,-38355.72759577365,-65042.168205042864,0.014,1.008,0.014,192.0,0.0,112.0,31.0,128.0,0.0,112.0,0.0,0.0,0.0,1769807040.4513893,0.0,-44.0
178.0,-47914.85344348591,-18516.00629282073,-187500.02235174447,-67936.47324281612,-71770.2891552793,-48756.62013967278,-38413.663317401806,-64760.91620456174,0.014,1.008,0.014,192.0,0.0,0.0,0.0,0.0,0.0,0.0,0.0,0.0,0.0,1769807040.4513936,0.0,-44.0
179.0,-47393.74487325488,-18007.146478551207,-187500.02235174447,-67391.49300950683,-71254.321486273,-48224.49215942528,-37883.748159855386,-64232.85624180511,0.014,1.008,0.014,192.0,0.0,0.0,0.0,0.0,0.0,0.0,0.0,0.0,0.0,1769807040.4513984,0.0,-44.0
180.0,-47787.31438962393,-18366.406067181357,-187500.02235174447,-67649.99093413245,-71658.61983998059,-48252.16361906095,-37774.403425980025,-64489.38721291867,0.014,1.008,0.014,192.0,0.0,0.0,0.0,0.0,0.0,0.0,0.0,0.0,0.0,1769807040.4514031,0.0,-44.0
181.0,-48344.02928877226,-18908.99466383394,-187500.02235174447,-68217.68053980834,-72204.31532911246,-48790.25951507801,-38296.94250785619,-65039.12836779695,0.014,1.008,0.014,192.0,0.0,0.0,0.0,0.0,0.0,0.0,0.0,0.0,0.0,1769807040.4514105,0.0,-44.0
182.0,-48065.3924423924,-18660.84559689112,-187500.02235174447,-68081.04432595304,-71927.28780833338,-48864.06497526944,-38491.9838299732,-64901.95571207473,0.014,1.008,0.014,192.0,0.0,0.0,0.0,0.0,0.0,0.0,0.0,0.0,0.0,1769807040.451416,0.0,-44.0
183.0,-47401.99266695889,-17995.65768190118,-187500.02235174447,-67439.99629497484,-71268.82776842448,-48314.837910513634,-37977.75959703441,-64282.14183832906,0.014,1.008,0.014,192.0,0.0,0.0,0.0,0.0,0.0,0.0,0.0,0.0,0.0,1769807040.4514208,0.0,-44.0
184.0,-47665.385623620234,-18216.13528920833,-187500.02235174447,-67553.00671494087,-71537.138108866,-48191.56803984261,-37722.65913756599,-64390.16781928156,0.014,1.008,0.014,192.0,0.0,0.0,0.0,0.0,0.0,0.0,0.0,0.0,0.0,1769807040.451425,0.0,-44.0
185.0,-48279.052767640685,-18872.82954130525,-187500.02235174447,-68170.22778632972,-72173.73814269759,-48724.05364800139,-38213.48109406008,-64991.630910829415,0.014,1.008,0.014,192.0,0.0,0.0,0.0,0.0,0.0,0.0,0.0,0.0,0.0,1769807040.451429,0.0,-44.0
186.0,-48146.95395790982,-18795.04547060078,-187500.02235174447,-68154.55921346655,-72026.28368452593,-48903.80637691097,-38507.65240283637,-64973.97303270973,0.014,1.008,0.014,192.0,0.0,0.0,0.0,0.0,0.0,0.0,0.0,0.0,0.0,1769807040.4514327,0.0,-44.0
187.0,-47480.38023476365,-18119.598104905857,-187500.02235174447,-67525.46936577193,-71343.43789141631,-48414.9290221845,-38089.406560588664,-64360.708220089466,0.014,1.012,0.01,192.0,0.0,112.0,31.0,160.0,0.0,80.0,0.0,0.0,0.0,1769807040.4514368,0.0,-44.0
188.0,-47570.34600619626,-18170.64948924178,-187500.02235174447,-67478.5754059047,-71445.80888102161,-48163.31543485111,-37719.77576253125,-64317.63640852409,0.014,1.012,0.01,192.0,0.0,0.0,0.0,0.0,0.0,0.0,0.0,0.0,0.0,1769807040.4514406,0.0,-44.0
189.0,-48240.89833985548,-18815.944351666494,-187500.02235174447,-68087.03459346708,-72117.25528445904,-48635.47368472501,-38118.150903958194,-64913.958598847224,0.014,1.012,0.01,192.0,0.0,0.0,0.0,0.0,0.0,0.0,0.0,0.0,0.0,1769807040.4514446,0.0,-44.0
190.0,-48242.97705208982,-18842.274706634846,-187500.02235174447,-68206.77288851416,-72112.9190460347,-48929.01914465656,-38509.90992902636,-65033.92041133886,0.014,1.012,0.01,192.0,0.0,0.0,0.0,0.0,0.0,0.0,0.0,0.0,0.0,1769807040.4514484,0.0,-44.0
191.0,-47568.624921873205,-18186.02748942703,-187500.02235174447,-67610.65186389111,-71431.4590610813,-48514.17076756606,-38193.92331766168,-64457.37951485867,0.014,1.012,0.01,192.0,0.0,0.0,0.0,0.0,0.0,0.0,0.0,0.0,0.0,1769807040.4514523,0.0,-44.0
192.0,-47499.5133280174,-18095.01118600502,-187500.02235174447,-67416.75048074132,-71370.68466790732,-48156.94518768134,-37736.47251563937,-64271.41300099051,0.014,1.012,0.01,192.0,0.0,0.0,0.0,0.0,0.0,0.0,0.0,0.0,0.0,1769807040.451456,0.0,-44.0
193.0,-48149.14442886644,-18719.18364991947,-187500.02235174447,-67979.52270263704,-72017.18652453262,-48544.502084791915,-38023.915949334616,-64823.27757159204,0.014,1.012,0.01,192.0,0.0,0.0,0.0,0.0,0.0,0.0,0.0,0.0,0.0,1769807040.45146,0.0,-44.0
194.0,-48309.89817498901,-18879.11038149719,-187500.02235174447,-68243.65326686541,-72175.14630259828,-48935.38939182632,-38486.68646653729,-65078.26627233819,0.014,1.012,0.01,192.0,0.0,0.0,0.0,0.0,0.0,0.0,0.0,0.0,0.0,1769807040.451464,0.0,-44.0
195.0,-47710.334981719854,-18309.498525798146,-187500.02235174447,-67759.31331626336,-71577.46065586337,-48657.37839429121,-38325.30687156998,-64609.997225999505,0.014,1.012,0.01,192.0,0.0,0.0,0.0,0.0,0.0,0.0,0.0,0.0,0.0,1769807040.4514675,0.0,-44.0
196.0,-47406.41831236104,-18012.71206292058,-187500.02235174447,-67362.21222427038,-71285.43511455478,-48157.883960948464,-37755.44914668192,-64229.548183625724,0.014,1.012,0.01,192.0,0.0,0.0,0.0,0.0,0.0,0.0,0.0,0.0,0.0,1769807040.4514716,0.0,-44.0
197.0,-48012.03882837759,-18593.231569913813,-187500.02235174447,-67841.90301202572,-71883.90307234562,-48422.3274495992,-37900.69078215251,-64697.75017473104,0.014,1.01,0.008,192.0,0.0,112.0,31.0,144.0,0.0,64.0,0.0,0.0,0.0,1769807040.4514751,0.0,-44.0
198.0,-48341.8611695601,-18936.911992658617,-187500.02235174447,-68247.11778725598,-72207.53398031402,-48899.96187686466,-38433.869294389406,-65091.1632288889,0.014,1.01,0.008,192.0,0.0,0.0,0.0,0.0,0.0,0.0,0.0,0.0,0.0,1769807040.4514792,0.0,-44.0
199.0,-47812.72832306961,-18448.213451887783,-187500.02235174447,-67864.43357043667,-71692.3709741081,-48728.94868003711,-38389.38932292334,-64714.98336970608,0.014,1.01,0.008,192.0,0.0,0.0,0.0,0.0,0.0,0.0,0.0,0.0,0.0,1769807040.4514828,0.0,-44.0
200.0,-47388.08988190769,-18001.29032150392,-187500.02235174447,-67372.82930288665,-71264.71504744471,-48197.98299050129,-37824.78425798229,-64238.39947443003,0.014,1.01,0.008,192.0,0.0,0.0,0.0,0.0,0.0,0.0,0.0,0.0,0.0,1769807040.4514868,0.0,-44.0
201.0,-47903.40935032479,-18464.79844627362,-187500.02235174447,-67741.20840325457,-71765.4388267325,-48340.27419570377,-37829.4781243179,-64595.468592103556,0.014,1.01,0.008,192.0,0.0,0.0,0.0,0.0,0.0,0.0,0.0,0.0,0.0,1769807040.4514906,0.0,-44.0
202.0,-48352.23237898736,-18925.445547753043,-187500.02235174447,-68236.9030400399,-72209.90326522628,-48856.68889959918,-38363.59540982192,-65073.12537111347,0.014,1.01,0.008,192.0,0.0,0.0,0.0,0.0,0.0,0.0,0.0,0.0,0.0,1769807040.4514945,0.0,-44.0
203.0,-47972.90092383634,-18574.29964236017,-187500.02235174447,-67993.69370862171,-71825.14033617263,-48824.971774217105,-38457.38332955639,-64828.41847281677,0.014,1.01,0.008,192.0,0.0,0.0,0.0,0.0,0.0,0.0,0.0,0.0,0.0,1769807040.451498,0.0,-44.0
204.0,-47418.890585767105,-17997.691690646614,-187500.02235174447,-67416.57166678568,-71263.99979162215,-48276.43761353941,-37911.35256425769,-64264.95334684293,0.014,1.01,0.008,192.0,0.0,0.0,0.0,0.0,0.0,0.0,0.0,0.0,0.0,1769807040.451502,0.0,-44.0
205.0,-47825.625279620326,-18374.29623297408,-187500.02235174447,-67692.34748987526,-71682.91618620351,-48301.493919073815,-37803.95243214994,-64524.25593426895,0.014,1.01,0.008,192.0,0.0,0.0,0.0,0.0,0.0,0.0,0.0,0.0,0.0,1769807040.451506,0.0,-44.0
206.0,-48349.68428011946,-18924.819698908294,-187500.02235174447,-68256.28200248265,-72226.97999799013,-48829.12919868579,-38314.55568248698,-65067.98446988875,0.014,1.01,0.008,192.0,0.0,0.0,0.0,0.0,0.0,0.0,0.0,0.0,0.0,1769807040.45151,0.0,-44.0
207.0,-48057.74814578869,-18688.829980949162,-187500.02235174447,-68106.61472160992,-71938.48603230549,-48888.22721102562,-38494.44252186329,-64917.870154126904,0.022,1.012,0.006,192.0,0.0,176.0,31.0,160.0,0.0,48.0,0.0,0.0,0.0,1769807040.451514,0.0,-44.0
208.0,-47408.09469319519,-18017.607094956293,-187500.02235174447,-67472.00399303484,-71284.60810000994,-48352.52295166528,-37997.719704833,-64300.1796961045,0.022,1.012,0.006,192.0,0.0,0.0,0.0,0.0,0.0,0.0,0.0,0.0,0.0,1769807040.451518,0.0,-44.0
209.0,-47604.09714032378,-18185.02166092654,-187500.02235174447,-67525.82699368322,-71487.29371873065,-48181.24153390426,-37691.79137847321,-64348.459464127955,0.022,1.012,0.006,192.0,0.0,0.0,0.0,0.0,0.0,0.0,0.0,0.0,0.0,1769807040.4515219,0.0,-44.0
210.0,-48247.514456214245,-18825.756767482373,-187500.02235174447,-68140.6340766709,-72122.61970312831,-48688.581429550824,-38149.51040142899,-64936.15388109135,0.022,1.012,0.006,192.0,0.0,0.0,0.0,0.0,0.0,0.0,0.0,0.0,0.0,1769807040.4515257,0.0,-44.0
211.0,-48142.39420204094,-18742.4741676419,-187500.02235174447,-68160.34831528048,-72004.11075402627,-48898.48666173061,-38471.50963205214,-64949.05083764206,0.022,1.012,0.006,192.0,0.0,0.0,0.0,0.0,0.0,0.0,0.0,0.0,0.0,1769807040.4515295,0.0,-44.0
212.0,-47464.42108922257,-18086.517523112005,-187500.02235174447,-67551.01740968435,-71333.17844071132,-48427.66951652402,-38083.59510703029,-64352.8404060412,0.022,1.012,0.006,192.0,0.0,0.0,0.0,0.0,0.0,0.0,0.0,0.0,0.0,1769807040.451574,0.0,-44.0
213.0,-47518.37820033768,-18111.886753068775,-187500.02235174447,-67473.54626340226,-71398.42318277636,-48150.37377481148,-37689.80207321669,-64280.57721621719,0.022,1.012,0.006,192.0,0.0,0.0,0.0,0.0,0.0,0.0,0.0,0.0,0.0,1769807040.4515808,0.0,-44.0
214.0,-48168.948074453845,-18749.962002034426,-187500.02235174447,-68082.76541027612,-72068.75199899102,-48612.652553636144,-38068.038292889396,-64870.193883203734,0.022,1.012,0.006,192.0,0.0,0.0,0.0,0.0,0.0,0.0,0.0,0.0,0.0,1769807040.4515848,0.0,-44.0
215.0,-48247.58151144761,-18853.092950951213,-187500.02235174447,-68264.37333397548,-72126.33009270788,-48953.471953090666,-38503.696144067784,-65040.62593467545,0.022,1.012,0.006,192.0,0.0,0.0,0.0,0.0,0.0,0.0,0.0,0.0,0.0,1769807040.4515889,0.0,-44.0
216.0,-47605.818224646835,-18208.781565282534,-187500.02235174447,-67696.88489399968,-71464.6737533419,-48571.63710256066,-38223.025288942496,-64485.9226925281,0.022,1.012,0.006,192.0,0.0,0.0,0.0,0.0,0.0,0.0,0.0,0.0,0.0,1769807040.4515927,0.0,-44.0
217.0,-47476.93806611754,-18049.301868593917,-187500.02235174447,-67449.2722689238,-71344.39901642788,-48166.422327330394,-37725.967195745376,-64246.93784081195,0.014,1.008,0.008,192.0,0.0,112.0,31.0,128.0,0.0,64.0,0.0,0.0,0.0,1769807040.4515967,0.0,-44.0
218.0,-48095.63435264044,-18653.603631687598,-187500.02235174447,-67989.51393240856,-71979.07680023632,-48521.077456602754,-37977.9607627345,-64772.36029772286,0.014,1.008,0.008,192.0,0.0,0.0,0.0,0.0,0.0,0.0,0.0,0.0,0.0,1769807040.4516008,0.0,-44.0
